id,eventID,sensorId,time,ax,ay,az
1,1,E0:5B:41:FE:20:24,1574183063603,0.0499234568414511,0.03297815817464,0.998208439926456
2,1,E0:5B:41:FE:20:24,1574183062739,0.0495560729816185,0.0314765607914742,0.998275223448615
3,1,E0:5B:41:FE:20:24,1574183061624,0.0486300053841448,0.0512375123752518,0.997501799447968
4,1,E0:5B:41:FE:20:24,1574183060642,0.0470351115908838,0.0500318084512448,0.997639472164535
5,1,E0:5B:41:FE:20:24,1574183059620,0.045132563918018,0.0249315863003215,0.998669849188778
6,1,E0:5B:41:FE:20:24,1574183058735,0.0532948306253982,0.00843515304862418,0.998543193468193
7,1,E0:5B:41:FE:20:24,1574183057625,0.0492771031269306,-0.00114597914248676,0.998784488185125
8,1,E0:5B:41:FE:20:24,1574183056651,0.0697572969933873,0.0352046171742329,0.996942603385868
9,1,E0:5B:41:FE:20:24,1574183055614,0.0466290033630679,0.0333436448629759,0.998355616698088
10,1,E0:5B:41:FE:20:24,1574183054732,0.0475962037378519,0.0160392686568652,0.998737875145775
11,1,E0:5B:41:FE:20:24,1574183053625,0.049084634377019,0.0161874858051871,0.998663438787754
12,1,E0:5B:41:FE:20:24,1574183052643,0.0486232452077668,0.0366303804380227,0.99814527762968
13,1,E0:5B:41:FE:20:24,1574183051601,0.0545995515248807,0.0204585431728073,0.998298721317687
14,1,E0:5B:41:FE:20:24,1574183050661,0.0667097760947152,0.0156351037721989,0.997649913197724
15,2,E0:5B:41:FE:20:24,1574183070638,0.0428775580162521,0.0157695578114483,0.99895587293183
16,2,E0:5B:41:FE:20:24,1574183069612,0.0458700511314954,0.0142040783333324,0.998846425917365
17,2,E0:5B:41:FE:20:24,1574183068636,0.044218430909433,0.0160438554627146,0.9988930498656
18,2,E0:5B:41:FE:20:24,1574183067604,0.0451580407296088,0.0161187340847895,0.99884980741299
19,2,E0:5B:41:FE:20:24,1574183066679,0.0454785756855905,0.0161585770344218,0.998834620716479
20,2,E0:5B:41:FE:20:24,1574183065668,0.0454627064904644,0.0349111900843681,0.998355823905212
21,2,E0:5B:41:FE:20:24,1574183064636,0.0433271896249042,0.035147425211943,0.998442493657085
22,2,E0:5B:41:FE:20:24,1574183063603,0.0499234568414511,0.03297815817464,0.998208439926456
23,2,E0:5B:41:FE:20:24,1574183062739,0.0495560729816185,0.0314765607914742,0.998275223448615
24,2,E0:5B:41:FE:20:24,1574183061624,0.0486300053841448,0.0512375123752518,0.997501799447968
25,2,E0:5B:41:FE:20:24,1574183060642,0.0470351115908838,0.0500318084512448,0.997639472164535
26,2,E0:5B:41:FE:20:24,1574183059620,0.045132563918018,0.0249315863003215,0.998669849188778
27,2,E0:5B:41:FE:20:24,1574183058735,0.0532948306253982,0.00843515304862418,0.998543193468193
28,2,E0:5B:41:FE:20:24,1574183057625,0.0492771031269306,-0.00114597914248676,0.998784488185125
29,2,E0:5B:41:FE:20:24,1574183056651,0.0697572969933873,0.0352046171742329,0.996942603385868
30,2,E0:5B:41:FE:20:24,1574183055614,0.0466290033630679,0.0333436448629759,0.998355616698088
31,2,E0:5B:41:FE:20:24,1574183054732,0.0475962037378519,0.0160392686568652,0.998737875145775
32,2,E0:5B:41:FE:20:24,1574183053625,0.049084634377019,0.0161874858051871,0.998663438787754
33,2,E0:5B:41:FE:20:24,1574183052643,0.0486232452077668,0.0366303804380227,0.99814527762968
34,2,E0:5B:41:FE:20:24,1574183051601,0.0545995515248807,0.0204585431728073,0.998298721317687
35,2,E0:5B:41:FE:20:24,1574183050661,0.0667097760947152,0.0156351037721989,0.997649913197724
36,3,E0:5B:41:FE:20:24,1574183074683,0.0548269151795204,0.0272261218886912,0.998124615295505
37,3,E0:5B:41:FE:20:24,1574183073607,0.0449947515279989,0.0353437033741673,0.998361805642991
38,3,E0:5B:41:FE:20:24,1574183072685,0.0468018712838681,0.0344513774728473,0.998309915524509
39,3,E0:5B:41:FE:20:24,1574183071604,0.0467361896409923,0.0510322739255404,0.997602844620959
40,3,E0:5B:41:FE:20:24,1574183070638,0.0428775580162521,0.0157695578114483,0.99895587293183
41,3,E0:5B:41:FE:20:24,1574183069612,0.0458700511314954,0.0142040783333324,0.998846425917365
42,3,E0:5B:41:FE:20:24,1574183068636,0.044218430909433,0.0160438554627146,0.9988930498656
43,3,E0:5B:41:FE:20:24,1574183067604,0.0451580407296088,0.0161187340847895,0.99884980741299
44,3,E0:5B:41:FE:20:24,1574183066679,0.0454785756855905,0.0161585770344218,0.998834620716479
45,3,E0:5B:41:FE:20:24,1574183065668,0.0454627064904644,0.0349111900843681,0.998355823905212
46,3,E0:5B:41:FE:20:24,1574183064636,0.0433271896249042,0.035147425211943,0.998442493657085
47,3,E0:5B:41:FE:20:24,1574183063603,0.0499234568414511,0.03297815817464,0.998208439926456
48,3,E0:5B:41:FE:20:24,1574183062739,0.0495560729816185,0.0314765607914742,0.998275223448615
49,3,E0:5B:41:FE:20:24,1574183061624,0.0486300053841448,0.0512375123752518,0.997501799447968
50,3,E0:5B:41:FE:20:24,1574183060642,0.0470351115908838,0.0500318084512448,0.997639472164535
51,3,E0:5B:41:FE:20:24,1574183059620,0.045132563918018,0.0249315863003215,0.998669849188778
52,3,E0:5B:41:FE:20:24,1574183058735,0.0532948306253982,0.00843515304862418,0.998543193468193
53,3,E0:5B:41:FE:20:24,1574183057625,0.0492771031269306,-0.00114597914248676,0.998784488185125
54,3,E0:5B:41:FE:20:24,1574183056651,0.0697572969933873,0.0352046171742329,0.996942603385868
55,3,E0:5B:41:FE:20:24,1574183055614,0.0466290033630679,0.0333436448629759,0.998355616698088
56,3,E0:5B:41:FE:20:24,1574183054732,0.0475962037378519,0.0160392686568652,0.998737875145775
57,3,E0:5B:41:FE:20:24,1574183053625,0.049084634377019,0.0161874858051871,0.998663438787754
58,3,E0:5B:41:FE:20:24,1574183052643,0.0486232452077668,0.0366303804380227,0.99814527762968
59,3,E0:5B:41:FE:20:24,1574183051601,0.0545995515248807,0.0204585431728073,0.998298721317687
60,3,E0:5B:41:FE:20:24,1574183050661,0.0667097760947152,0.0156351037721989,0.997649913197724
61,5,E0:5B:41:FE:20:24,1574183255661,0.0471775592862094,0.0350315751881338,0.998272040397623
62,5,E0:5B:41:FE:20:24,1574183254723,0.0474952679347757,0.0334418735869517,0.998311494782464
63,5,E0:5B:41:FE:20:24,1574183253663,0.0455583610092414,0.0156965781628479,0.998838351874881
64,5,E0:5B:41:FE:20:24,1574183252629,0.0466297564581567,0.0366004512981621,0.998241490210372
65,5,E0:5B:41:FE:20:24,1574183251665,0.046968119724155,0.0335300188030773,0.998333478136761
66,5,E0:5B:41:FE:20:24,1574183250678,0.0483480739466236,0.0344040202746863,0.998237861000368
67,5,E0:5B:41:FE:20:24,1574183249657,0.0460342812730785,0.0157283794349685,0.998816030622267
68,5,E0:5B:41:FE:20:24,1574183248626,0.0469372601456877,0.0347153696922399,0.99829441384651
69,5,E0:5B:41:FE:20:24,1574183247666,0.0468513500978723,0.0339672288209574,0.998324185002162
70,5,E0:5B:41:FE:20:24,1574183246689,0.0476866261201893,0.0337454540030847,0.998292156647241
71,5,E0:5B:41:FE:20:24,1574183245666,0.0455017620952957,0.0348932052022914,0.998354673388638
72,5,E0:5B:41:FE:20:24,1574183244631,0.0464613561693147,0.03422783381661,0.998333510293595
73,5,E0:5B:41:FE:20:24,1574183243667,0.0477869758338628,0.0337319829415502,0.998287813342167
74,5,E0:5B:41:FE:20:24,1574183242638,0.0455239515579173,0.0370695034114469,0.998275223448615
75,5,E0:5B:41:FE:20:24,1574183241667,0.0480139165324161,0.0162174664883427,0.99871500319156
76,5,E0:5B:41:FE:20:24,1574183240623,0.0460814973146315,0.0343377362261382,0.998347342098984
77,5,E0:5B:41:FE:20:24,1574183239667,0.0468803335390403,0.0348998038568411,0.998290658084119
78,5,E0:5B:41:FE:20:24,1574183238686,0.0461898280408355,0.0340893942160532,0.998350846640368
79,5,E0:5B:41:FE:20:24,1574183237669,0.0469992682982966,0.0329505739700014,0.998351305129849
80,5,E0:5B:41:FE:20:24,1574183236643,0.0474744463622889,0.0348579496577902,0.998264043371416
81,5,E0:5B:41:FE:20:24,1574183235669,0.045600064882722,0.0340046198125441,0.998380849132282
82,5,E0:5B:41:FE:20:24,1574183234730,0.0459742520226237,0.0326928014383102,0.998407506424644
83,5,E0:5B:41:FE:20:24,1574183233598,0.0476281069530054,0.0145747212533787,0.998758800175728
84,5,E0:5B:41:FE:20:24,1574183232689,0.0446633079086034,0.0162767157101324,0.998869489699407
85,5,E0:5B:41:FE:20:24,1574183231650,0.0482563710313778,0.0340403049707827,0.998254767227474
86,5,E0:5B:41:FE:20:24,1574183230648,0.0457670074920725,0.0162357819874112,0.998820194233416
87,5,E0:5B:41:FE:20:24,1574183229626,0.0485670887162759,0.0164060406923613,0.998685175479453
88,5,E0:5B:41:FE:20:24,1574183228649,0.047741893919462,0.0338225951473028,0.998286904463083
89,5,E0:5B:41:FE:20:24,1574183227625,0.0479895345563067,0.0160815993459964,0.998718372082713
90,5,E0:5B:41:FE:20:24,1574183226703,0.0456278750732839,0.0161039559082178,0.998828693831131
91,5,E0:5B:41:FE:20:24,1574183225629,0.046028964892887,0.0157776338584684,0.998815498808823
92,5,E0:5B:41:FE:20:24,1574183224641,0.0485382046720718,0.0346143765221745,0.998221362036093
93,5,E0:5B:41:FE:20:24,1574183223628,0.0469822343754638,0.0333170415515754,0.998339944305215
94,5,E0:5B:41:FE:20:24,1574183222657,0.0667107270874517,0.0352409493970749,0.997149815412437
95,5,E0:5B:41:FE:20:24,1574183221631,0.0470298793696634,0.0341324886283984,0.998310154043575
96,5,E0:5B:41:FE:20:24,1574183220653,0.0487924664153106,0.0160467202381904,0.998680027832092
97,5,E0:5B:41:FE:20:24,1574183219625,0.0477897784264559,0.0159725195275588,0.998729701019196
98,5,E0:5B:41:FE:20:24,1574183218663,0.0475963028823598,0.0159089012373915,0.998739955550668
99,5,E0:5B:41:FE:20:24,1574183217624,0.0469029835907146,0.0158948999946311,0.998772978351162
100,5,E0:5B:41:FE:20:24,1574183216643,0.0448839027592263,0.0331194610103692,0.998443056250822
101,5,E0:5B:41:FE:20:24,1574183215624,0.0473790832611937,0.0161845904253113,0.998745854310341
102,5,E0:5B:41:FE:20:24,1574183214664,0.047690928627308,0.0331151488323667,0.99831305823598
103,5,E0:5B:41:FE:20:24,1574183213731,0.0466399352133862,0.0165917976809525,0.998773962762849
104,5,E0:5B:41:FE:20:24,1574183212664,0.0468594882641972,0.0331974576258618,0.998349696833127
105,5,E0:5B:41:FE:20:24,1574183211634,0.0486926640029805,0.0350222636812881,0.9981996120611
106,5,E0:5B:41:FE:20:24,1574183210665,0.0443036275729528,0.0343448870810498,0.998427572393344
107,5,E0:5B:41:FE:20:24,1574183209641,0.0471290100388765,0.034240137127692,0.998301792757196
108,5,E0:5B:41:FE:20:24,1574183208665,0.0456885012398041,0.0338197006384025,0.998383087148009
109,5,E0:5B:41:FE:20:24,1574183207630,0.0479189151356707,0.0159294486282066,0.998724201288134
110,5,E0:5B:41:FE:20:24,1574183206666,0.0465191753376945,0.0329723825195747,0.998373070708983
111,5,E0:5B:41:FE:20:24,1574183205690,0.0443467626370035,0.0159750585868168,0.998888463316483
112,5,E0:5B:41:FE:20:24,1574183204652,0.0458626033382498,0.0338540108207136,0.998373941750479
113,5,E0:5B:41:FE:20:24,1574183203646,0.0499358036696741,0.0333774562387378,0.998194550639751
114,5,E0:5B:41:FE:20:24,1574183202712,0.0466327913581473,0.0347792047280037,0.998306460806818
115,5,E0:5B:41:FE:20:24,1574183201743,0.0459547186063218,0.0339554309702266,0.99836626172234
116,5,E0:5B:41:FE:20:24,1574183200658,0.0470315591973239,0.035273669397993,0.998270404593199
117,5,E0:5B:41:FE:20:24,1574183199646,0.0477528057520814,0.0347411420594162,0.998254838501277
118,5,E0:5B:41:FE:20:24,1574183198663,0.0446909096938239,0.01379033784838,0.998905675813671
119,5,E0:5B:41:FE:20:24,1574183197733,0.046390862828467,0.033483212289417,0.998362039713456
120,5,E0:5B:41:FE:20:24,1574183196669,0.045636540252622,0.0340036966588164,0.998379213929911
121,5,E0:5B:41:FE:20:24,1574183195649,0.0444686339517668,0.0159729288619852,0.998883079313106
122,5,E0:5B:41:FE:20:24,1574183194627,0.0466842676903388,0.0344605318605565,0.998315106013179
123,5,E0:5B:41:FE:20:24,1574183193747,0.0471196915956084,0.0335839536304743,0.998324522749232
124,5,E0:5B:41:FE:20:24,1574183192622,0.044635695718965,0.0141845213800793,0.99890262489439
125,5,E0:5B:41:FE:20:24,1574183191649,0.0448382940909842,0.0329580623232875,0.998450446196958
126,5,E0:5B:41:FE:20:24,1574183190626,0.043252397940824,0.0134186656262195,0.998974058464573
127,5,E0:5B:41:FE:20:24,1574183189689,0.043727455546279,0.0132972379438977,0.998955000535315
128,5,E0:5B:41:FE:20:24,1574183188628,0.0432345114412557,0.0115121480169024,0.998998622355643
129,5,E0:5B:41:FE:20:24,1574183187639,0.0435500946328011,0.0165594671208555,0.998913996951763
130,5,E0:5B:41:FE:20:24,1574183186627,0.0457421278273949,0.0330927684561321,0.998404991182301
131,5,E0:5B:41:FE:20:24,1574183185748,0.0477602903165461,0.0339657650480069,0.998281163537399
132,5,E0:5B:41:FE:20:24,1574183184628,0.0439460639622424,0.0353648798749406,0.998407766763489
133,5,E0:5B:41:FE:20:24,1574183183640,0.042351413012653,0.0161586929648276,0.998972098938454
134,5,E0:5B:41:FE:20:24,1574183182625,0.0453231403810203,0.0334713996492018,0.998411477473855
135,5,E0:5B:41:FE:20:24,1574183181660,0.0427135595338104,0.0335058461013722,0.998525367784406
136,5,E0:5B:41:FE:20:24,1574183180626,0.0418121910794003,0.0147045931930613,0.999017274933805
137,5,E0:5B:41:FE:20:24,1574183179699,0.0427696587991442,0.0338327151694723,0.998511944680917
138,5,E0:5B:41:FE:20:24,1574183178705,0.0430587970576272,0.0163909620219366,0.998938074336916
139,5,E0:5B:41:FE:20:24,1574183177706,0.0454024017250661,0.0152193966345996,0.998852837951454
140,5,E0:5B:41:FE:20:24,1574183176685,0.044117122159265,0.0346169749096298,0.998426434235638
141,5,E0:5B:41:FE:20:24,1574183175664,0.0461929389761614,0.0157446355383536,0.998808449523986
142,5,E0:5B:41:FE:20:24,1574183174636,0.0451419113503568,0.0163915874067578,0.998846096103861
143,5,E0:5B:41:FE:20:24,1574183173664,0.0455354875011166,0.0157327667489813,0.998838825551179
144,5,E0:5B:41:FE:20:24,1574183172643,0.0432321981114015,0.0154766153002354,0.998945169378833
145,5,E0:5B:41:FE:20:24,1574183171711,0.0427311567705392,0.034057369724579,0.998505955820242
146,5,E0:5B:41:FE:20:24,1574183170641,0.0450200107184109,0.0348709909610813,0.998377289717823
147,5,E0:5B:41:FE:20:24,1574183169662,0.0442305953267721,0.0158514272269357,0.998895583478027
148,5,E0:5B:41:FE:20:24,1574183168644,0.045375412561356,0.0341274229686818,0.998386894413385
149,5,E0:5B:41:FE:20:24,1574183167705,0.04628222889862,0.0327299740277534,0.998392059307524
150,5,E0:5B:41:FE:20:24,1574183166631,0.0443715220780677,0.0343521461249556,0.998424307639335
151,5,E0:5B:41:FE:20:24,1574183165649,0.0442834889829461,0.0333428622930418,0.998462431009602
152,5,E0:5B:41:FE:20:24,1574183164643,0.0427580626713633,0.0165557132904364,0.998948275154443
153,5,E0:5B:41:FE:20:24,1574183163661,0.0447248300012746,0.0352338050300739,0.998377818545895
154,5,E0:5B:41:FE:20:24,1574183162680,0.0453848947631527,0.0148674655258604,0.998858933882145
155,5,E0:5B:41:FE:20:24,1574183161683,0.0456970199362566,0.0161436765586776,0.998824891598179
156,5,E0:5B:41:FE:20:24,1574183160738,0.0445959801066195,0.0162283366004031,0.998873285081503
157,5,E0:5B:41:FE:20:24,1574183159667,0.0450717508848692,0.0148502300603326,0.998873369321321
158,5,E0:5B:41:FE:20:24,1574183158649,0.0444589516822762,0.0338983209307678,0.998435929568537
159,5,E0:5B:41:FE:20:24,1574183157670,0.0431901257964873,0.0341176437504796,0.998484150809916
160,5,E0:5B:41:FE:20:24,1574183156700,0.044485614530765,0.0332991734499294,0.998454903912726
161,5,E0:5B:41:FE:20:24,1574183155619,0.0444323981661387,0.0334519779296791,0.998452165687369
162,5,E0:5B:41:FE:20:24,1574183154649,0.0443016087942013,0.0158311224509538,0.998892758518245
163,5,E0:5B:41:FE:20:24,1574183153624,0.0467249983527484,0.01496761785673,0.998795647239529
164,5,E0:5B:41:FE:20:24,1574183152683,0.0457862321398661,0.016305638226448,0.998818175199301
165,5,E0:5B:41:FE:20:24,1574183151627,0.0453940843329346,0.0334277354543386,0.99840971730546
166,5,E0:5B:41:FE:20:24,1574183150634,0.0432965060922472,0.0334621964488754,0.998501724569878
167,6,E0:5B:41:FE:20:24,1574183533302,0.0839714324486334,-0.00906074727029327,0.996426967414787
168,6,E0:5B:41:FE:20:24,1574183532331,0.0832056818936394,-0.0232352840233408,0.996261479771736
169,6,E0:5B:41:FE:20:24,1574183531415,0.0661715761067644,-0.0238373984794053,0.997523483908665
170,6,E0:5B:41:FE:20:24,1574183530299,0.0636723474372102,-0.0230955809341384,0.997703576375844
171,6,E0:5B:41:FE:20:24,1574183529320,0.0641276152794045,-0.0227384771309442,0.997682620183564
172,6,E0:5B:41:FE:20:24,1574183528267,0.0651673476559341,-0.00971121259186469,0.997827093814097
173,6,E0:5B:41:FE:20:24,1574183527376,0.0826418141955948,-0.00878626375885368,0.996540582272303
174,6,E0:5B:41:FE:20:24,1574183526329,0.0635272433403715,-0.00905709694210116,0.997939005324752
175,6,E0:5B:41:FE:20:24,1574183525279,0.0851163661400354,-0.00964309284063845,0.996324352294765
176,6,E0:5B:41:FE:20:24,1574183524265,0.0662366599991416,-0.0209510849899053,0.9975839598299
177,6,E0:5B:41:FE:20:24,1574183523274,0.0824236418578802,-0.0224212688825145,0.99634513596674
178,6,E0:5B:41:FE:20:24,1574183522295,0.0831858880454896,-0.0223213303335791,0.996284028900505
179,6,E0:5B:41:FE:20:24,1574183521261,0.0643611324611248,-0.020049003564279,0.997725253807079
180,6,E0:5B:41:FE:20:24,1574183520256,0.0639761186856801,-0.0226023413320666,0.997695439703031
181,6,E0:5B:41:FE:20:24,1574183519301,0.0841837880023678,-0.0243313266714726,0.996153139020291
182,7,E0:5B:41:FE:20:24,1574183539452,0.0842287358967625,-0.0227469579968109,0.996186777643191
183,7,E0:5B:41:FE:20:24,1574183538312,0.0847848254828726,-0.0233317640050612,0.996126077440125
184,7,E0:5B:41:FE:20:24,1574183537273,0.0818808355888575,-0.0243601862888969,0.996344373240117
185,7,E0:5B:41:FE:20:24,1574183536294,0.0847181145016457,-0.0238715667202187,0.996118963466517
186,7,E0:5B:41:FE:20:24,1574183535388,0.0840659525586444,-0.0235639412474988,0.996181537819936
187,7,E0:5B:41:FE:20:24,1574183534270,0.0843734187539522,-0.0230688652484371,0.996167131391073
188,7,E0:5B:41:FE:20:24,1574183533302,0.0839714324486334,-0.00906074727029327,0.996426967414787
189,7,E0:5B:41:FE:20:24,1574183532331,0.0832056818936394,-0.0232352840233408,0.996261479771736
190,7,E0:5B:41:FE:20:24,1574183531415,0.0661715761067644,-0.0238373984794053,0.997523483908665
191,7,E0:5B:41:FE:20:24,1574183530299,0.0636723474372102,-0.0230955809341384,0.997703576375844
192,7,E0:5B:41:FE:20:24,1574183529320,0.0641276152794045,-0.0227384771309442,0.997682620183564
193,7,E0:5B:41:FE:20:24,1574183528267,0.0651673476559341,-0.00971121259186469,0.997827093814097
194,7,E0:5B:41:FE:20:24,1574183527376,0.0826418141955948,-0.00878626375885368,0.996540582272303
195,7,E0:5B:41:FE:20:24,1574183526329,0.0635272433403715,-0.00905709694210116,0.997939005324752
196,7,E0:5B:41:FE:20:24,1574183525279,0.0851163661400354,-0.00964309284063845,0.996324352294765
197,7,E0:5B:41:FE:20:24,1574183524265,0.0662366599991416,-0.0209510849899053,0.9975839598299
198,7,E0:5B:41:FE:20:24,1574183523274,0.0824236418578802,-0.0224212688825145,0.99634513596674
199,7,E0:5B:41:FE:20:24,1574183522295,0.0831858880454896,-0.0223213303335791,0.996284028900505
200,7,E0:5B:41:FE:20:24,1574183521261,0.0643611324611248,-0.020049003564279,0.997725253807079
201,7,E0:5B:41:FE:20:24,1574183520256,0.0639761186856801,-0.0226023413320666,0.997695439703031
202,7,E0:5B:41:FE:20:24,1574183519301,0.0841837880023678,-0.0243313266714726,0.996153139020291
203,8,E0:5B:41:FE:20:24,1574183553322,0.0831473690319083,-0.0243202871134678,0.996240452229174
204,8,E0:5B:41:FE:20:24,1574183552269,0.083021933628934,-0.0238115055040041,0.996263203547208
205,8,E0:5B:41:FE:20:24,1574183551363,0.08228895022403,-0.0211454577975062,0.996384162000561
206,8,E0:5B:41:FE:20:24,1574183550317,0.0838746401631521,-0.00840019157931417,0.996440907188646
207,8,E0:5B:41:FE:20:24,1574183549270,0.0827170419591573,-0.0235425427114525,0.996294956151142
208,8,E0:5B:41:FE:20:24,1574183548293,0.0817969810408815,-0.0237351614252792,0.996366346282688
209,8,E0:5B:41:FE:20:24,1574183547460,0.083168850419399,-0.00866076849696651,0.996497834121559
210,8,E0:5B:41:FE:20:24,1574183546269,0.0834327819738714,-0.0239471191008974,0.996225630255952
211,8,E0:5B:41:FE:20:24,1574183545284,0.0857396180011734,-0.0248125258154911,0.996008562446964
212,8,E0:5B:41:FE:20:24,1574183544307,0.0825884239006054,-0.00917649154451171,0.996541491479681
213,8,E0:5B:41:FE:20:24,1574183543257,0.0821977016669494,-0.0113244511584497,0.996551701943573
214,8,E0:5B:41:FE:20:24,1574183542298,0.0835797120916514,-0.0243349466608314,0.996203915921681
215,8,E0:5B:41:FE:20:24,1574183541322,0.0850517078201908,-0.0086999456854241,0.996338555884464
216,8,E0:5B:41:FE:20:24,1574183540273,0.0834327819738714,-0.0239471191008974,0.996225630255952
217,8,E0:5B:41:FE:20:24,1574183539452,0.0842287358967625,-0.0227469579968109,0.996186777643191
218,8,E0:5B:41:FE:20:24,1574183538312,0.0847848254828726,-0.0233317640050612,0.996126077440125
219,8,E0:5B:41:FE:20:24,1574183537273,0.0818808355888575,-0.0243601862888969,0.996344373240117
220,8,E0:5B:41:FE:20:24,1574183536294,0.0847181145016457,-0.0238715667202187,0.996118963466517
221,8,E0:5B:41:FE:20:24,1574183535388,0.0840659525586444,-0.0235639412474988,0.996181537819936
222,8,E0:5B:41:FE:20:24,1574183534270,0.0843734187539522,-0.0230688652484371,0.996167131391073
223,8,E0:5B:41:FE:20:24,1574183533302,0.0839714324486334,-0.00906074727029327,0.996426967414787
224,8,E0:5B:41:FE:20:24,1574183532331,0.0832056818936394,-0.0232352840233408,0.996261479771736
225,8,E0:5B:41:FE:20:24,1574183531415,0.0661715761067644,-0.0238373984794053,0.997523483908665
226,8,E0:5B:41:FE:20:24,1574183530299,0.0636723474372102,-0.0230955809341384,0.997703576375844
227,8,E0:5B:41:FE:20:24,1574183529320,0.0641276152794045,-0.0227384771309442,0.997682620183564
228,8,E0:5B:41:FE:20:24,1574183528267,0.0651673476559341,-0.00971121259186469,0.997827093814097
229,8,E0:5B:41:FE:20:24,1574183527376,0.0826418141955948,-0.00878626375885368,0.996540582272303
230,8,E0:5B:41:FE:20:24,1574183526329,0.0635272433403715,-0.00905709694210116,0.997939005324752
231,8,E0:5B:41:FE:20:24,1574183525279,0.0851163661400354,-0.00964309284063845,0.996324352294765
232,8,E0:5B:41:FE:20:24,1574183524265,0.0662366599991416,-0.0209510849899053,0.9975839598299
233,8,E0:5B:41:FE:20:24,1574183523274,0.0824236418578802,-0.0224212688825145,0.99634513596674
234,8,E0:5B:41:FE:20:24,1574183522295,0.0831858880454896,-0.0223213303335791,0.996284028900505
235,8,E0:5B:41:FE:20:24,1574183521261,0.0643611324611248,-0.020049003564279,0.997725253807079
236,8,E0:5B:41:FE:20:24,1574183520256,0.0639761186856801,-0.0226023413320666,0.997695439703031
237,8,E0:5B:41:FE:20:24,1574183519301,0.0841837880023678,-0.0243313266714726,0.996153139020291
238,9,E0:5B:41:FE:20:24,1574183555266,0.0632203595851224,-0.0228946158168345,0.997736950654093
239,9,E0:5B:41:FE:20:24,1574183554373,0.0872826319996374,-0.0236039212837058,0.995903909547125
240,9,E0:5B:41:FE:20:24,1574183553322,0.0831473690319083,-0.0243202871134678,0.996240452229174
241,9,E0:5B:41:FE:20:24,1574183552269,0.083021933628934,-0.0238115055040041,0.996263203547208
242,9,E0:5B:41:FE:20:24,1574183551363,0.08228895022403,-0.0211454577975062,0.996384162000561
243,9,E0:5B:41:FE:20:24,1574183550317,0.0838746401631521,-0.00840019157931417,0.996440907188646
244,9,E0:5B:41:FE:20:24,1574183549270,0.0827170419591573,-0.0235425427114525,0.996294956151142
245,9,E0:5B:41:FE:20:24,1574183548293,0.0817969810408815,-0.0237351614252792,0.996366346282688
246,9,E0:5B:41:FE:20:24,1574183547460,0.083168850419399,-0.00866076849696651,0.996497834121559
247,9,E0:5B:41:FE:20:24,1574183546269,0.0834327819738714,-0.0239471191008974,0.996225630255952
248,9,E0:5B:41:FE:20:24,1574183545284,0.0857396180011734,-0.0248125258154911,0.996008562446964
249,9,E0:5B:41:FE:20:24,1574183544307,0.0825884239006054,-0.00917649154451171,0.996541491479681
250,9,E0:5B:41:FE:20:24,1574183543257,0.0821977016669494,-0.0113244511584497,0.996551701943573
251,9,E0:5B:41:FE:20:24,1574183542298,0.0835797120916514,-0.0243349466608314,0.996203915921681
252,9,E0:5B:41:FE:20:24,1574183541322,0.0850517078201908,-0.0086999456854241,0.996338555884464
253,9,E0:5B:41:FE:20:24,1574183540273,0.0834327819738714,-0.0239471191008974,0.996225630255952
254,9,E0:5B:41:FE:20:24,1574183539452,0.0842287358967625,-0.0227469579968109,0.996186777643191
255,9,E0:5B:41:FE:20:24,1574183538312,0.0847848254828726,-0.0233317640050612,0.996126077440125
256,9,E0:5B:41:FE:20:24,1574183537273,0.0818808355888575,-0.0243601862888969,0.996344373240117
257,9,E0:5B:41:FE:20:24,1574183536294,0.0847181145016457,-0.0238715667202187,0.996118963466517
258,9,E0:5B:41:FE:20:24,1574183535388,0.0840659525586444,-0.0235639412474988,0.996181537819936
259,9,E0:5B:41:FE:20:24,1574183534270,0.0843734187539522,-0.0230688652484371,0.996167131391073
260,9,E0:5B:41:FE:20:24,1574183533302,0.0839714324486334,-0.00906074727029327,0.996426967414787
261,9,E0:5B:41:FE:20:24,1574183532331,0.0832056818936394,-0.0232352840233408,0.996261479771736
262,9,E0:5B:41:FE:20:24,1574183531415,0.0661715761067644,-0.0238373984794053,0.997523483908665
263,9,E0:5B:41:FE:20:24,1574183530299,0.0636723474372102,-0.0230955809341384,0.997703576375844
264,9,E0:5B:41:FE:20:24,1574183529320,0.0641276152794045,-0.0227384771309442,0.997682620183564
265,9,E0:5B:41:FE:20:24,1574183528267,0.0651673476559341,-0.00971121259186469,0.997827093814097
266,9,E0:5B:41:FE:20:24,1574183527376,0.0826418141955948,-0.00878626375885368,0.996540582272303
267,9,E0:5B:41:FE:20:24,1574183526329,0.0635272433403715,-0.00905709694210116,0.997939005324752
268,9,E0:5B:41:FE:20:24,1574183525279,0.0851163661400354,-0.00964309284063845,0.996324352294765
269,9,E0:5B:41:FE:20:24,1574183524265,0.0662366599991416,-0.0209510849899053,0.9975839598299
270,9,E0:5B:41:FE:20:24,1574183523274,0.0824236418578802,-0.0224212688825145,0.99634513596674
271,9,E0:5B:41:FE:20:24,1574183522295,0.0831858880454896,-0.0223213303335791,0.996284028900505
272,9,E0:5B:41:FE:20:24,1574183521261,0.0643611324611248,-0.020049003564279,0.997725253807079
273,9,E0:5B:41:FE:20:24,1574183520256,0.0639761186856801,-0.0226023413320666,0.997695439703031
274,9,E0:5B:41:FE:20:24,1574183519301,0.0841837880023678,-0.0243313266714726,0.996153139020291
275,10,E0:5B:41:FE:20:24,1574183557293,0.0758505854996091,-0.0228982899621461,0.996856236874794
276,10,E0:5B:41:FE:20:24,1574183556379,0.0808255666514184,-0.0102656266325757,0.996675395846269
277,10,E0:5B:41:FE:20:24,1574183555266,0.0632203595851224,-0.0228946158168345,0.997736950654093
278,10,E0:5B:41:FE:20:24,1574183554373,0.0872826319996374,-0.0236039212837058,0.995903909547125
279,10,E0:5B:41:FE:20:24,1574183553322,0.0831473690319083,-0.0243202871134678,0.996240452229174
280,10,E0:5B:41:FE:20:24,1574183552269,0.083021933628934,-0.0238115055040041,0.996263203547208
281,10,E0:5B:41:FE:20:24,1574183551363,0.08228895022403,-0.0211454577975062,0.996384162000561
282,10,E0:5B:41:FE:20:24,1574183550317,0.0838746401631521,-0.00840019157931417,0.996440907188646
283,10,E0:5B:41:FE:20:24,1574183549270,0.0827170419591573,-0.0235425427114525,0.996294956151142
284,10,E0:5B:41:FE:20:24,1574183548293,0.0817969810408815,-0.0237351614252792,0.996366346282688
285,10,E0:5B:41:FE:20:24,1574183547460,0.083168850419399,-0.00866076849696651,0.996497834121559
286,10,E0:5B:41:FE:20:24,1574183546269,0.0834327819738714,-0.0239471191008974,0.996225630255952
287,10,E0:5B:41:FE:20:24,1574183545284,0.0857396180011734,-0.0248125258154911,0.996008562446964
288,10,E0:5B:41:FE:20:24,1574183544307,0.0825884239006054,-0.00917649154451171,0.996541491479681
289,10,E0:5B:41:FE:20:24,1574183543257,0.0821977016669494,-0.0113244511584497,0.996551701943573
290,10,E0:5B:41:FE:20:24,1574183542298,0.0835797120916514,-0.0243349466608314,0.996203915921681
291,10,E0:5B:41:FE:20:24,1574183541322,0.0850517078201908,-0.0086999456854241,0.996338555884464
292,10,E0:5B:41:FE:20:24,1574183540273,0.0834327819738714,-0.0239471191008974,0.996225630255952
293,10,E0:5B:41:FE:20:24,1574183539452,0.0842287358967625,-0.0227469579968109,0.996186777643191
294,10,E0:5B:41:FE:20:24,1574183538312,0.0847848254828726,-0.0233317640050612,0.996126077440125
295,10,E0:5B:41:FE:20:24,1574183537273,0.0818808355888575,-0.0243601862888969,0.996344373240117
296,10,E0:5B:41:FE:20:24,1574183536294,0.0847181145016457,-0.0238715667202187,0.996118963466517
297,10,E0:5B:41:FE:20:24,1574183535388,0.0840659525586444,-0.0235639412474988,0.996181537819936
298,10,E0:5B:41:FE:20:24,1574183534270,0.0843734187539522,-0.0230688652484371,0.996167131391073
299,10,E0:5B:41:FE:20:24,1574183533302,0.0839714324486334,-0.00906074727029327,0.996426967414787
300,10,E0:5B:41:FE:20:24,1574183532331,0.0832056818936394,-0.0232352840233408,0.996261479771736
301,10,E0:5B:41:FE:20:24,1574183531415,0.0661715761067644,-0.0238373984794053,0.997523483908665
302,10,E0:5B:41:FE:20:24,1574183530299,0.0636723474372102,-0.0230955809341384,0.997703576375844
303,10,E0:5B:41:FE:20:24,1574183529320,0.0641276152794045,-0.0227384771309442,0.997682620183564
304,10,E0:5B:41:FE:20:24,1574183528267,0.0651673476559341,-0.00971121259186469,0.997827093814097
305,10,E0:5B:41:FE:20:24,1574183527376,0.0826418141955948,-0.00878626375885368,0.996540582272303
306,10,E0:5B:41:FE:20:24,1574183526329,0.0635272433403715,-0.00905709694210116,0.997939005324752
307,10,E0:5B:41:FE:20:24,1574183525279,0.0851163661400354,-0.00964309284063845,0.996324352294765
308,10,E0:5B:41:FE:20:24,1574183524265,0.0662366599991416,-0.0209510849899053,0.9975839598299
309,10,E0:5B:41:FE:20:24,1574183523274,0.0824236418578802,-0.0224212688825145,0.99634513596674
310,10,E0:5B:41:FE:20:24,1574183522295,0.0831858880454896,-0.0223213303335791,0.996284028900505
311,10,E0:5B:41:FE:20:24,1574183521261,0.0643611324611248,-0.020049003564279,0.997725253807079
312,10,E0:5B:41:FE:20:24,1574183520256,0.0639761186856801,-0.0226023413320666,0.997695439703031
313,10,E0:5B:41:FE:20:24,1574183519301,0.0841837880023678,-0.0243313266714726,0.996153139020291
314,11,E0:5B:41:FE:20:24,1574183558269,0.0800140539736139,-0.0230659406406021,0.996526825303299
315,11,E0:5B:41:FE:20:24,1574183557293,0.0758505854996091,-0.0228982899621461,0.996856236874794
316,11,E0:5B:41:FE:20:24,1574183556379,0.0808255666514184,-0.0102656266325757,0.996675395846269
317,11,E0:5B:41:FE:20:24,1574183555266,0.0632203595851224,-0.0228946158168345,0.997736950654093
318,11,E0:5B:41:FE:20:24,1574183554373,0.0872826319996374,-0.0236039212837058,0.995903909547125
319,11,E0:5B:41:FE:20:24,1574183553322,0.0831473690319083,-0.0243202871134678,0.996240452229174
320,11,E0:5B:41:FE:20:24,1574183552269,0.083021933628934,-0.0238115055040041,0.996263203547208
321,11,E0:5B:41:FE:20:24,1574183551363,0.08228895022403,-0.0211454577975062,0.996384162000561
322,11,E0:5B:41:FE:20:24,1574183550317,0.0838746401631521,-0.00840019157931417,0.996440907188646
323,11,E0:5B:41:FE:20:24,1574183549270,0.0827170419591573,-0.0235425427114525,0.996294956151142
324,11,E0:5B:41:FE:20:24,1574183548293,0.0817969810408815,-0.0237351614252792,0.996366346282688
325,11,E0:5B:41:FE:20:24,1574183547460,0.083168850419399,-0.00866076849696651,0.996497834121559
326,11,E0:5B:41:FE:20:24,1574183546269,0.0834327819738714,-0.0239471191008974,0.996225630255952
327,11,E0:5B:41:FE:20:24,1574183545284,0.0857396180011734,-0.0248125258154911,0.996008562446964
328,11,E0:5B:41:FE:20:24,1574183544307,0.0825884239006054,-0.00917649154451171,0.996541491479681
329,11,E0:5B:41:FE:20:24,1574183543257,0.0821977016669494,-0.0113244511584497,0.996551701943573
330,11,E0:5B:41:FE:20:24,1574183542298,0.0835797120916514,-0.0243349466608314,0.996203915921681
331,11,E0:5B:41:FE:20:24,1574183541322,0.0850517078201908,-0.0086999456854241,0.996338555884464
332,11,E0:5B:41:FE:20:24,1574183540273,0.0834327819738714,-0.0239471191008974,0.996225630255952
333,11,E0:5B:41:FE:20:24,1574183539452,0.0842287358967625,-0.0227469579968109,0.996186777643191
334,11,E0:5B:41:FE:20:24,1574183538312,0.0847848254828726,-0.0233317640050612,0.996126077440125
335,11,E0:5B:41:FE:20:24,1574183537273,0.0818808355888575,-0.0243601862888969,0.996344373240117
336,11,E0:5B:41:FE:20:24,1574183536294,0.0847181145016457,-0.0238715667202187,0.996118963466517
337,11,E0:5B:41:FE:20:24,1574183535388,0.0840659525586444,-0.0235639412474988,0.996181537819936
338,11,E0:5B:41:FE:20:24,1574183534270,0.0843734187539522,-0.0230688652484371,0.996167131391073
339,11,E0:5B:41:FE:20:24,1574183533302,0.0839714324486334,-0.00906074727029327,0.996426967414787
340,11,E0:5B:41:FE:20:24,1574183532331,0.0832056818936394,-0.0232352840233408,0.996261479771736
341,11,E0:5B:41:FE:20:24,1574183531415,0.0661715761067644,-0.0238373984794053,0.997523483908665
342,11,E0:5B:41:FE:20:24,1574183530299,0.0636723474372102,-0.0230955809341384,0.997703576375844
343,11,E0:5B:41:FE:20:24,1574183529320,0.0641276152794045,-0.0227384771309442,0.997682620183564
344,11,E0:5B:41:FE:20:24,1574183528267,0.0651673476559341,-0.00971121259186469,0.997827093814097
345,11,E0:5B:41:FE:20:24,1574183527376,0.0826418141955948,-0.00878626375885368,0.996540582272303
346,11,E0:5B:41:FE:20:24,1574183526329,0.0635272433403715,-0.00905709694210116,0.997939005324752
347,11,E0:5B:41:FE:20:24,1574183525279,0.0851163661400354,-0.00964309284063845,0.996324352294765
348,11,E0:5B:41:FE:20:24,1574183524265,0.0662366599991416,-0.0209510849899053,0.9975839598299
349,11,E0:5B:41:FE:20:24,1574183523274,0.0824236418578802,-0.0224212688825145,0.99634513596674
350,11,E0:5B:41:FE:20:24,1574183522295,0.0831858880454896,-0.0223213303335791,0.996284028900505
351,11,E0:5B:41:FE:20:24,1574183521261,0.0643611324611248,-0.020049003564279,0.997725253807079
352,11,E0:5B:41:FE:20:24,1574183520256,0.0639761186856801,-0.0226023413320666,0.997695439703031
353,11,E0:5B:41:FE:20:24,1574183519301,0.0841837880023678,-0.0243313266714726,0.996153139020291
354,14,E0:5B:41:FE:20:24,1574183900486,0.0793360990070507,-0.00943869988186777,0.996803237524279
355,15,E0:5B:41:FE:20:24,1574183905469,0.0906336527569565,-0.0204865767319015,0.995673561546022
356,15,E0:5B:41:FE:20:24,1574183904555,0.0750297394584409,-0.0204153710484839,0.996972291902714
357,15,E0:5B:41:FE:20:24,1574183903443,0.0867001573364977,-0.0165506908278189,0.996096961821965
358,15,E0:5B:41:FE:20:24,1574183902458,0.075546105506106,-0.0209344629715715,0.996922531695895
359,15,E0:5B:41:FE:20:24,1574183901448,0.0999109948983752,-0.00935447546512745,0.994952404332584
360,15,E0:5B:41:FE:20:24,1574183900486,0.0793360990070507,-0.00943869988186777,0.996803237524279
361,16,E0:5B:41:FE:20:24,1574183907479,0.0886353379796086,-0.017854600456324,0.995904106881674
362,16,E0:5B:41:FE:20:24,1574183906497,0.0874601277166935,-0.0196339062221149,0.995974515630918
363,16,E0:5B:41:FE:20:24,1574183905469,0.0906336527569565,-0.0204865767319015,0.995673561546022
364,16,E0:5B:41:FE:20:24,1574183904555,0.0750297394584409,-0.0204153710484839,0.996972291902714
365,16,E0:5B:41:FE:20:24,1574183903443,0.0867001573364977,-0.0165506908278189,0.996096961821965
366,16,E0:5B:41:FE:20:24,1574183902458,0.075546105506106,-0.0209344629715715,0.996922531695895
367,16,E0:5B:41:FE:20:24,1574183901448,0.0999109948983752,-0.00935447546512745,0.994952404332584
368,16,E0:5B:41:FE:20:24,1574183900486,0.0793360990070507,-0.00943869988186777,0.996803237524279
369,17,E0:5B:41:FE:20:24,1574183920597,0.0758395859707788,-0.0211942277292075,0.996894759696701
370,17,E0:5B:41:FE:20:24,1574183919475,0.0878388497076093,-0.0197215733464647,0.995939453996469
371,17,E0:5B:41:FE:20:24,1574183918574,0.0905327002666902,-0.0180545844147345,0.995729813837083
372,17,E0:5B:41:FE:20:24,1574183917448,0.0866996888809846,-0.0202129773197603,0.996029416983159
373,17,E0:5B:41:FE:20:24,1574183916535,0.0856213550729376,-0.018320171070584,0.996159301963004
374,17,E0:5B:41:FE:20:24,1574183915499,0.0859721481407195,-0.0209190390134688,0.99607790034255
375,17,E0:5B:41:FE:20:24,1574183914449,0.0887091159675869,-0.0171818230353289,0.995909372232952
376,17,E0:5B:41:FE:20:24,1574183913478,0.0858299207612523,-0.0211391199501007,0.996085519576433
377,17,E0:5B:41:FE:20:24,1574183912566,0.0890458186273725,-0.018302420446734,0.99585935934286
378,17,E0:5B:41:FE:20:24,1574183911525,0.0889002828447985,-0.0174739436868542,0.99588724311648
379,17,E0:5B:41:FE:20:24,1574183910461,0.0885166082468121,-0.0198578314688596,0.995876737650717
380,17,E0:5B:41:FE:20:24,1574183909562,0.0874089107149113,-0.0169466255467685,0.99602836014353
381,17,E0:5B:41:FE:20:24,1574183908589,0.0858519310917454,-0.0210171641396706,0.996086203468025
382,17,E0:5B:41:FE:20:24,1574183907479,0.0886353379796086,-0.017854600456324,0.995904106881674
383,17,E0:5B:41:FE:20:24,1574183906497,0.0874601277166935,-0.0196339062221149,0.995974515630918
384,17,E0:5B:41:FE:20:24,1574183905469,0.0906336527569565,-0.0204865767319015,0.995673561546022
385,17,E0:5B:41:FE:20:24,1574183904555,0.0750297394584409,-0.0204153710484839,0.996972291902714
386,17,E0:5B:41:FE:20:24,1574183903443,0.0867001573364977,-0.0165506908278189,0.996096961821965
387,17,E0:5B:41:FE:20:24,1574183902458,0.075546105506106,-0.0209344629715715,0.996922531695895
388,17,E0:5B:41:FE:20:24,1574183901448,0.0999109948983752,-0.00935447546512745,0.994952404332584
389,17,E0:5B:41:FE:20:24,1574183900486,0.0793360990070507,-0.00943869988186777,0.996803237524279
390,18,E0:5B:41:FE:20:24,1574183923442,0.0886373859184157,-0.0177793878050117,0.995905270187295
391,18,E0:5B:41:FE:20:24,1574183922459,0.090426364446987,-0.0186820609474406,0.995727901191715
392,18,E0:5B:41:FE:20:24,1574183921490,0.0881516690437997,-0.0206422906891961,0.995893156458008
393,18,E0:5B:41:FE:20:24,1574183920597,0.0758395859707788,-0.0211942277292075,0.996894759696701
394,18,E0:5B:41:FE:20:24,1574183919475,0.0878388497076093,-0.0197215733464647,0.995939453996469
395,18,E0:5B:41:FE:20:24,1574183918574,0.0905327002666902,-0.0180545844147345,0.995729813837083
396,18,E0:5B:41:FE:20:24,1574183917448,0.0866996888809846,-0.0202129773197603,0.996029416983159
397,18,E0:5B:41:FE:20:24,1574183916535,0.0856213550729376,-0.018320171070584,0.996159301963004
398,18,E0:5B:41:FE:20:24,1574183915499,0.0859721481407195,-0.0209190390134688,0.99607790034255
399,18,E0:5B:41:FE:20:24,1574183914449,0.0887091159675869,-0.0171818230353289,0.995909372232952
400,18,E0:5B:41:FE:20:24,1574183913478,0.0858299207612523,-0.0211391199501007,0.996085519576433
401,18,E0:5B:41:FE:20:24,1574183912566,0.0890458186273725,-0.018302420446734,0.99585935934286
402,18,E0:5B:41:FE:20:24,1574183911525,0.0889002828447985,-0.0174739436868542,0.99588724311648
403,18,E0:5B:41:FE:20:24,1574183910461,0.0885166082468121,-0.0198578314688596,0.995876737650717
404,18,E0:5B:41:FE:20:24,1574183909562,0.0874089107149113,-0.0169466255467685,0.99602836014353
405,18,E0:5B:41:FE:20:24,1574183908589,0.0858519310917454,-0.0210171641396706,0.996086203468025
406,18,E0:5B:41:FE:20:24,1574183907479,0.0886353379796086,-0.017854600456324,0.995904106881674
407,18,E0:5B:41:FE:20:24,1574183906497,0.0874601277166935,-0.0196339062221149,0.995974515630918
408,18,E0:5B:41:FE:20:24,1574183905469,0.0906336527569565,-0.0204865767319015,0.995673561546022
409,18,E0:5B:41:FE:20:24,1574183904555,0.0750297394584409,-0.0204153710484839,0.996972291902714
410,18,E0:5B:41:FE:20:24,1574183903443,0.0867001573364977,-0.0165506908278189,0.996096961821965
411,18,E0:5B:41:FE:20:24,1574183902458,0.075546105506106,-0.0209344629715715,0.996922531695895
412,18,E0:5B:41:FE:20:24,1574183901448,0.0999109948983752,-0.00935447546512745,0.994952404332584
413,18,E0:5B:41:FE:20:24,1574183900486,0.0793360990070507,-0.00943869988186777,0.996803237524279
414,20,E0:5B:41:FE:20:24,1574183978679,0.163373422586603,-0.0353134951434224,0.985932087850423
415,20,E0:5B:41:FE:20:24,1574183979662,0.429466601040068,-0.171964053588484,0.886558967505551
416,21,E0:5B:41:FE:20:24,1574183978679,0.163373422586603,-0.0353134951434224,0.985932087850423
417,21,E0:5B:41:FE:20:24,1574183979662,0.429466601040068,-0.171964053588484,0.886558967505551
418,21,E0:5B:41:FE:20:24,1574183980660,0.397627258169038,-0.186227317447987,0.898449748064465
419,21,E0:5B:41:FE:20:24,1574183981698,0.403206011931245,-0.193386011409678,0.894442151585868
420,21,E0:5B:41:FE:20:24,1574183982724,0.394443623243491,-0.1897228834232,0.8991214910056
421,21,E0:5B:41:FE:20:24,1574183983672,0.402926520706937,-0.194406642524742,0.894346843374124
422,22,E0:5B:41:FE:20:24,1574183978679,0.163373422586603,-0.0353134951434224,0.985932087850423
423,22,E0:5B:41:FE:20:24,1574183979662,0.429466601040068,-0.171964053588484,0.886558967505551
424,22,E0:5B:41:FE:20:24,1574183980660,0.397627258169038,-0.186227317447987,0.898449748064465
425,22,E0:5B:41:FE:20:24,1574183981698,0.403206011931245,-0.193386011409678,0.894442151585868
426,22,E0:5B:41:FE:20:24,1574183982724,0.394443623243491,-0.1897228834232,0.8991214910056
427,22,E0:5B:41:FE:20:24,1574183983672,0.402926520706937,-0.194406642524742,0.894346843374124
428,22,E0:5B:41:FE:20:24,1574183984727,0.403853274786935,-0.193319092067254,0.894164560406059
429,22,E0:5B:41:FE:20:24,1574183985695,0.40021852448469,-0.216183820309883,0.890555831206287
430,22,E0:5B:41:FE:20:24,1574183986740,0.402986318140078,-0.193153315835229,0.8945914285157
431,23,E0:5B:41:FE:20:24,1574183982724,0.394443623243491,-0.1897228834232,0.8991214910056
432,23,E0:5B:41:FE:20:24,1574183983672,0.402926520706937,-0.194406642524742,0.894346843374124
433,23,E0:5B:41:FE:20:24,1574183984727,0.403853274786935,-0.193319092067254,0.894164560406059
434,23,E0:5B:41:FE:20:24,1574183985695,0.40021852448469,-0.216183820309883,0.890555831206287
435,23,E0:5B:41:FE:20:24,1574183986740,0.402986318140078,-0.193153315835229,0.8945914285157
436,23,E0:5B:41:FE:20:24,1574183987720,0.403406793903294,-0.194567964084122,0.894095221989708
437,23,E0:5B:41:FE:20:24,1574183988687,0.404036403095192,-0.192404350796355,0.894279123522702
438,23,E0:5B:41:FE:20:24,1574183989671,0.401518541635382,-0.19363473395724,0.895147166966586
439,23,E0:5B:41:FE:20:24,1574183990787,0.403445489203422,-0.190851458964493,0.89487845982152
440,23,E0:5B:41:FE:20:24,1574183991691,0.397278679447412,-0.18743340155461,0.898353143723663
441,24,E0:5B:41:FE:20:24,1574183987720,0.403406793903294,-0.194567964084122,0.894095221989708
442,24,E0:5B:41:FE:20:24,1574183988687,0.404036403095192,-0.192404350796355,0.894279123522702
443,24,E0:5B:41:FE:20:24,1574183989671,0.401518541635382,-0.19363473395724,0.895147166966586
444,24,E0:5B:41:FE:20:24,1574183990787,0.403445489203422,-0.190851458964493,0.89487845982152
445,24,E0:5B:41:FE:20:24,1574183991691,0.397278679447412,-0.18743340155461,0.898353143723663
446,24,E0:5B:41:FE:20:24,1574183992669,0.404994698399795,-0.191498278113058,0.894040101867804
447,24,E0:5B:41:FE:20:24,1574183993727,0.403554393878463,-0.193547902470322,0.894249998954836
448,24,E0:5B:41:FE:20:24,1574183994836,0.404341199481213,-0.195216798739746,0.893531530440812
449,24,E0:5B:41:FE:20:24,1574183995672,0.403265607271754,-0.211717615142044,0.890254177990931
450,24,E0:5B:41:FE:20:24,1574183996719,0.396491128808944,-0.211204419651527,0.893413385782567
451,25,E0:5B:41:FE:20:24,1574184053717,0.393506341413141,-0.214832517824728,0.89386785855222
452,25,E0:5B:41:FE:20:24,1574184054691,0.394843320483591,-0.212694254734767,0.893789632000905
453,25,E0:5B:41:FE:20:24,1574184055661,0.395590537025296,-0.212243789386368,0.893566282310917
454,25,E0:5B:41:FE:20:24,1574184056925,0.398920967819573,-0.214852321823435,0.891459781056316
455,25,E0:5B:41:FE:20:24,1574184057678,0.402611329127022,-0.214506036010298,0.889882732821421
456,25,E0:5B:41:FE:20:24,1574184058656,0.411919126155644,-0.203179740754072,0.888279587998215
457,25,E0:5B:41:FE:20:24,1574184059715,0.399550064528815,-0.204355861029706,0.893643344963653
458,25,E0:5B:41:FE:20:24,1574184060771,0.402759213219595,-0.212773778693501,0.890231618887592
459,25,E0:5B:41:FE:20:24,1574184061666,0.400394329640842,-0.216969927601771,0.890285589745191
460,25,E0:5B:41:FE:20:24,1574184062773,0.400885069595729,-0.21591974318099,0.890320069121146
461,26,D2:C0:A5:F4:45:84,1574325229891,-0.00832826362470074,-0.0241378488105733,0.999673948985266
462,26,D2:C0:A5:F4:45:84,1574325230904,-0.00774539519294998,-0.0223912333759827,0.999719281359126
463,26,D2:C0:A5:F4:45:84,1574325231861,-0.00662483498431157,-0.0257945702580642,0.999645312951865
464,26,D2:C0:A5:F4:45:84,1574325232819,-0.00859812312185763,-0.0255124636894464,0.999637527544498
465,27,D2:C0:A5:F4:45:84,1574325248920,-0.00791287246848139,-0.022890809640964,0.999706655616176
466,27,D2:C0:A5:F4:45:84,1574325249928,0.00732342119133475,-0.009435946534989,0.999928662663014
467,27,D2:C0:A5:F4:45:84,1574325250831,0.00830740961087807,-0.0266410032348848,0.999610546108931
468,27,D2:C0:A5:F4:45:84,1574325251858,-0.00873098517172314,-0.0259066937062605,0.999626236710072
469,27,D2:C0:A5:F4:45:84,1574325252866,0.00846182647382785,-0.0260906316276359,0.99962376744153
470,27,D2:C0:A5:F4:45:84,1574325253802,-0.00789542714051093,-0.0265060768288581,0.999617471896831
471,27,D2:C0:A5:F4:45:84,1574325254838,0.00831524205145851,-0.0246638535424617,0.999661218152461
472,27,D2:C0:A5:F4:45:84,1574325255847,0.00887846149362022,-0.0267763124410768,0.999602021813464
473,27,D2:C0:A5:F4:45:84,1574325256849,-0.00904358373719498,-0.0268481392197976,0.999598614951833
474,27,D2:C0:A5:F4:45:84,1574325257990,-0.00721818063755351,-0.00934117494271631,0.999930317731677
475,28,D2:C0:A5:F4:45:84,1574325255847,0.00887846149362022,-0.0267763124410768,0.999602021813464
476,28,D2:C0:A5:F4:45:84,1574325256849,-0.00904358373719498,-0.0268481392197976,0.999598614951833
477,28,D2:C0:A5:F4:45:84,1574325257990,-0.00721818063755351,-0.00934117494271631,0.999930317731677
478,28,D2:C0:A5:F4:45:84,1574325258930,0.00827955515131247,-0.0236966578468598,0.999684909045538
479,28,D2:C0:A5:F4:45:84,1574325259834,-0.00901705126689339,-0.0102850741013003,0.999906450642849
480,28,D2:C0:A5:F4:45:84,1574325260852,-0.00902058037540469,-0.0270617411262141,0.999593062849532
481,28,D2:C0:A5:F4:45:84,1574325261869,0.00762790344253248,-0.0241550275680195,0.999679123385229
482,28,D2:C0:A5:F4:45:84,1574325262810,0.00859200788363703,-0.0257760236509111,0.999630818855279
483,28,D2:C0:A5:F4:45:84,1574325263893,0.00830255896603754,-0.027054890423812,0.999599469997244
484,28,D2:C0:A5:F4:45:84,1574325264847,0.00565295522461743,-0.0227531447790851,0.999725131473592
485,29,D2:C0:A5:F4:45:84,1574327651700,-0.00155103852599388,-0.0238295918993605,0.999714831754236
486,29,D2:C0:A5:F4:45:84,1574327652680,-0.00268121040189632,-0.00959591091205,0.999950363570387
487,30,D2:C0:A5:F4:45:84,1574327655903,-0.00267592127137788,-0.0256325090205671,0.999667851802117
488,30,D2:C0:A5:F4:45:84,1574327656662,-0.0014111611774952,-0.010019244360216,0.999948810373102
489,30,D2:C0:A5:F4:45:84,1574327657717,-0.00182983302288312,-0.0263214442522417,0.999651856039684
490,30,D2:C0:A5:F4:45:84,1574327658765,-0.00141234472727805,-0.0261283774546439,0.999657597967403
491,30,D2:C0:A5:F4:45:84,1574327659650,-0.00169670399083611,-0.0267230878556687,0.99964143460094
492,30,D2:C0:A5:F4:45:84,1574327660712,-0.0021179164104285,-0.0261209690619515,0.999656545722251
493,30,D2:C0:A5:F4:45:84,1574327661687,-0.00310411335858102,-0.00973562826100411,0.99994778964835
494,30,D2:C0:A5:F4:45:84,1574327662659,-0.00295879039820753,-0.0263473240221337,0.999648470251544
495,30,D2:C0:A5:F4:45:84,1574327663712,0.0194067450142015,-0.0242230174994778,0.999518195767928
496,30,D2:C0:A5:F4:45:84,1574327664753,0.0196412473328301,-0.0269890520904356,0.999442750971996
497,31,E0:5B:41:FE:20:24,1574329654289,0.99073886123477,-0.0361618486938483,0.130877154378729
498,31,C0:09:55:11:5C:0F,1574329654683,-0.168887646099607,-0.984858978742328,0.0391120823474303
499,31,CF:CF:2F:51:CA:2E,1574329654709,-0.806504811389752,0.0996343005428113,0.582771821007609
500,31,D2:C0:A5:F4:45:84,1574329654723,0.60158663436029,0.741800185858327,0.296354526909258
501,31,E0:5B:41:FE:20:24,1574329655354,0.990838311188414,-0.0325021732565423,0.131084132582452
502,31,CF:CF:2F:51:CA:2E,1574329655718,-0.800967191300442,0.0689317219179775,0.594726808016675
503,31,D2:C0:A5:F4:45:84,1574329655732,0.581785468494806,0.750897022201163,0.31253692693457
504,31,C0:09:55:11:5C:0F,1574329655751,-0.165518912301567,-0.984819497811721,0.052288109550604
505,31,E0:5B:41:FE:20:24,1574329656377,0.990868189013513,-0.015121494899177,0.13398347806015
506,31,D2:C0:A5:F4:45:84,1574329656690,0.580019574041123,0.750167222922809,0.317531780112535
507,31,C0:09:55:11:5C:0F,1574329656823,-0.179094816412642,-0.982050723172638,0.059172830338097
508,31,CF:CF:2F:51:CA:2E,1574329656845,-0.773448474576844,0.0769769928018173,0.629167703997863
509,31,E0:5B:41:FE:20:24,1574329657380,0.990957127787001,-0.00801958298849246,0.133939005434672
510,31,D2:C0:A5:F4:45:84,1574329657650,0.560105038446499,0.774304418829687,0.294508086285702
511,31,C0:09:55:11:5C:0F,1574329657722,-0.176342561264364,-0.983130757939529,0.0485511470510315
512,31,CF:CF:2F:51:CA:2E,1574329657747,-0.780640031935783,0.0576348715981765,0.622317734051635
513,31,E0:5B:41:FE:20:24,1574329658224,0.989684522618682,-0.00968657565704607,0.142936055427143
514,31,C0:09:55:11:5C:0F,1574329658747,-0.172023073187647,-0.983588373173969,0.0544240245485657
515,31,D2:C0:A5:F4:45:84,1574329658774,0.557668744133766,0.781875397996274,0.278704922497678
516,31,CF:CF:2F:51:CA:2E,1574329658812,-0.816933057671677,0.074441445403169,0.571908078706265
517,31,E0:5B:41:FE:20:24,1574329659247,0.992569417678645,-0.0358745951527365,0.116271082009684
518,31,C0:09:55:11:5C:0F,1574329659701,-0.168598651024181,-0.983268309448771,0.0689777247130066
519,31,D2:C0:A5:F4:45:84,1574329659727,0.574257173443772,0.772639254338875,0.270660823546808
520,31,CF:CF:2F:51:CA:2E,1574329659769,-0.810193269760827,0.0503725891392999,0.583994407419851
521,31,E0:5B:41:FE:20:24,1574329660249,0.992380332804496,-0.0331193436341041,0.118677648022206
522,31,D2:C0:A5:F4:45:84,1574329660688,0.628591649137692,0.732296167786376,0.261944385852693
523,31,CF:CF:2F:51:CA:2E,1574329660724,-0.887710169101101,0.161875830024869,0.431006811231859
524,31,C0:09:55:11:5C:0F,1574329660815,-0.0789157285090798,-0.995696372761447,-0.0485905450018815
525,31,E0:5B:41:FE:20:24,1574329661373,0.969391980862465,-0.0124718473080982,0.245201224434686
526,31,D2:C0:A5:F4:45:84,1574329661648,0.131230626973855,0.837659553021581,0.530193356970581
527,31,C0:09:55:11:5C:0F,1574329661714,-0.154682750019492,-0.985418644617742,-0.0708755365844937
528,31,CF:CF:2F:51:CA:2E,1574329661737,-0.386294418324856,-0.267368466095765,0.882774447811364
529,31,E0:5B:41:FE:20:24,1574329662275,0.970887465002399,0.0484692271614975,0.234581039983165
530,31,D2:C0:A5:F4:45:84,1574329662709,0.533939455108087,0.816590876527968,0.2192897595652
531,31,C0:09:55:11:5C:0F,1574329662840,-0.210130919619474,-0.959450324227056,-0.187883133783931
532,31,CF:CF:2F:51:CA:2E,1574329662862,-0.855800395348129,-0.0231112602770588,0.516789660278137
533,31,E0:5B:41:FE:20:24,1574329663229,0.990062145662116,-0.00191316356649684,0.140617522137518
534,31,D2:C0:A5:F4:45:84,1574329663664,0.503452039090342,0.832661483291483,0.23067487634895
535,32,E0:5B:41:FE:20:24,1574329915354,0.970678086773209,-0.0190570112032739,0.239626547323747
536,32,E0:5B:41:FE:20:24,1574329915354,0.970678086773209,-0.0190570112032739,0.239626547323747
537,32,E0:5B:41:FE:20:24,1574329915354,0.970678086773209,-0.0190570112032739,0.239626547323747
538,32,D2:C0:A5:F4:45:84,1574329915665,0.372280259513999,0.890081603431734,0.262986972317229
539,32,D2:C0:A5:F4:45:84,1574329915665,0.372280259513999,0.890081603431734,0.262986972317229
540,32,D2:C0:A5:F4:45:84,1574329915665,0.372280259513999,0.890081603431734,0.262986972317229
541,32,C0:09:55:11:5C:0F,1574329915682,-0.26099124131749,-0.965320632583448,-0.00629668676738405
542,32,C0:09:55:11:5C:0F,1574329915682,-0.26099124131749,-0.965320632583448,-0.00629668676738405
543,32,C0:09:55:11:5C:0F,1574329915682,-0.26099124131749,-0.965320632583448,-0.00629668676738405
544,32,CF:CF:2F:51:CA:2E,1574329915705,-0.672858476678038,-0.261808192641794,0.691894457723248
545,32,CF:CF:2F:51:CA:2E,1574329915705,-0.672858476678038,-0.261808192641794,0.691894457723248
546,32,CF:CF:2F:51:CA:2E,1574329915705,-0.672858476678038,-0.261808192641794,0.691894457723248
547,32,E0:5B:41:FE:20:24,1574329916243,0.947498347734398,0.133110392552859,0.29073786205964
548,32,E0:5B:41:FE:20:24,1574329916243,0.947498347734398,0.133110392552859,0.29073786205964
549,32,E0:5B:41:FE:20:24,1574329916243,0.947498347734398,0.133110392552859,0.29073786205964
550,32,D2:C0:A5:F4:45:84,1574329916678,0.230604307328475,0.889175522059726,0.39520696402185
551,32,D2:C0:A5:F4:45:84,1574329916678,0.230604307328475,0.889175522059726,0.39520696402185
552,32,D2:C0:A5:F4:45:84,1574329916678,0.230604307328475,0.889175522059726,0.39520696402185
553,32,C0:09:55:11:5C:0F,1574329916695,-0.20845000688454,-0.975320680860851,0.0727884888904933
554,32,C0:09:55:11:5C:0F,1574329916695,-0.20845000688454,-0.975320680860851,0.0727884888904933
555,32,C0:09:55:11:5C:0F,1574329916695,-0.20845000688454,-0.975320680860851,0.0727884888904933
556,32,CF:CF:2F:51:CA:2E,1574329916717,-0.599459836223871,0.0344340584975916,0.79966380458905
557,32,CF:CF:2F:51:CA:2E,1574329916717,-0.599459836223871,0.0344340584975916,0.79966380458905
558,32,CF:CF:2F:51:CA:2E,1574329916717,-0.599459836223871,0.0344340584975916,0.79966380458905
559,32,E0:5B:41:FE:20:24,1574329917287,0.940353957897644,0.098635840543446,0.325584712212543
560,32,E0:5B:41:FE:20:24,1574329917287,0.940353957897644,0.098635840543446,0.325584712212543
561,32,E0:5B:41:FE:20:24,1574329917287,0.940353957897644,0.098635840543446,0.325584712212543
562,32,D2:C0:A5:F4:45:84,1574329917644,0.13715891086513,0.924350523903638,0.356038680664562
563,32,D2:C0:A5:F4:45:84,1574329917644,0.13715891086513,0.924350523903638,0.356038680664562
564,32,D2:C0:A5:F4:45:84,1574329917644,0.13715891086513,0.924350523903638,0.356038680664562
565,32,C0:09:55:11:5C:0F,1574329917714,-0.25126888170387,-0.96153824564197,-0.110942107673547
566,32,C0:09:55:11:5C:0F,1574329917714,-0.25126888170387,-0.96153824564197,-0.110942107673547
567,32,C0:09:55:11:5C:0F,1574329917714,-0.25126888170387,-0.96153824564197,-0.110942107673547
568,32,CF:CF:2F:51:CA:2E,1574329917730,-0.521176654109286,-0.291396799218739,0.802161330791085
569,32,CF:CF:2F:51:CA:2E,1574329917730,-0.521176654109286,-0.291396799218739,0.802161330791085
570,32,CF:CF:2F:51:CA:2E,1574329917730,-0.521176654109286,-0.291396799218739,0.802161330791085
571,32,E0:5B:41:FE:20:24,1574329918379,0.946348998747483,-0.0916779811884065,0.309868876034452
572,32,E0:5B:41:FE:20:24,1574329918379,0.946348998747483,-0.0916779811884065,0.309868876034452
573,32,E0:5B:41:FE:20:24,1574329918379,0.946348998747483,-0.0916779811884065,0.309868876034452
574,32,D2:C0:A5:F4:45:84,1574329918647,0.334332700570875,0.844580769360625,0.418216414497567
575,32,D2:C0:A5:F4:45:84,1574329918647,0.334332700570875,0.844580769360625,0.418216414497567
576,32,D2:C0:A5:F4:45:84,1574329918647,0.334332700570875,0.844580769360625,0.418216414497567
577,32,CF:CF:2F:51:CA:2E,1574329918799,-0.631461687798339,-0.019065174471496,0.775172662034237
578,32,CF:CF:2F:51:CA:2E,1574329918799,-0.631461687798339,-0.019065174471496,0.775172662034237
579,32,CF:CF:2F:51:CA:2E,1574329918799,-0.631461687798339,-0.019065174471496,0.775172662034237
580,32,C0:09:55:11:5C:0F,1574329918833,-0.16059083431694,-0.956728088853081,0.242656028016861
581,32,C0:09:55:11:5C:0F,1574329918833,-0.16059083431694,-0.956728088853081,0.242656028016861
582,32,C0:09:55:11:5C:0F,1574329918833,-0.16059083431694,-0.956728088853081,0.242656028016861
583,32,E0:5B:41:FE:20:24,1574329919347,0.946511192291295,0.0305133944372965,0.321224992220758
584,32,E0:5B:41:FE:20:24,1574329919347,0.946511192291295,0.0305133944372965,0.321224992220758
585,32,E0:5B:41:FE:20:24,1574329919347,0.946511192291295,0.0305133944372965,0.321224992220758
586,32,D2:C0:A5:F4:45:84,1574329919668,0.162996221568539,0.906718269582432,0.388965565776484
587,32,D2:C0:A5:F4:45:84,1574329919668,0.162996221568539,0.906718269582432,0.388965565776484
588,32,D2:C0:A5:F4:45:84,1574329919668,0.162996221568539,0.906718269582432,0.388965565776484
589,32,C0:09:55:11:5C:0F,1574329919733,-0.0878564187572195,-0.984212565543985,-0.153645291201794
590,32,C0:09:55:11:5C:0F,1574329919733,-0.0878564187572195,-0.984212565543985,-0.153645291201794
591,32,C0:09:55:11:5C:0F,1574329919733,-0.0878564187572195,-0.984212565543985,-0.153645291201794
592,32,CF:CF:2F:51:CA:2E,1574329919755,-0.533409869714286,-0.184743676344974,0.825435451711357
593,32,CF:CF:2F:51:CA:2E,1574329919755,-0.533409869714286,-0.184743676344974,0.825435451711357
594,32,CF:CF:2F:51:CA:2E,1574329919755,-0.533409869714286,-0.184743676344974,0.825435451711357
595,32,E0:5B:41:FE:20:24,1574329920302,0.974201077673611,-0.0332152129570729,0.223224124788948
596,32,E0:5B:41:FE:20:24,1574329920302,0.974201077673611,-0.0332152129570729,0.223224124788948
597,32,E0:5B:41:FE:20:24,1574329920302,0.974201077673611,-0.0332152129570729,0.223224124788948
598,32,C0:09:55:11:5C:0F,1574329920760,-0.210915074308534,-0.961527936826224,-0.176008119506262
599,32,C0:09:55:11:5C:0F,1574329920760,-0.210915074308534,-0.961527936826224,-0.176008119506262
600,32,C0:09:55:11:5C:0F,1574329920760,-0.210915074308534,-0.961527936826224,-0.176008119506262
601,32,CF:CF:2F:51:CA:2E,1574329920768,-0.517753751402661,-0.429427192544869,0.73994820035696
602,32,CF:CF:2F:51:CA:2E,1574329920768,-0.517753751402661,-0.429427192544869,0.73994820035696
603,32,CF:CF:2F:51:CA:2E,1574329920768,-0.517753751402661,-0.429427192544869,0.73994820035696
604,32,D2:C0:A5:F4:45:84,1574329920782,0.139482249557885,0.958594723590452,0.24827576998736
605,32,D2:C0:A5:F4:45:84,1574329920782,0.139482249557885,0.958594723590452,0.24827576998736
606,32,D2:C0:A5:F4:45:84,1574329920782,0.139482249557885,0.958594723590452,0.24827576998736
607,32,E0:5B:41:FE:20:24,1574329921247,0.951789051908323,-0.0197536251956014,0.306116636201117
608,32,E0:5B:41:FE:20:24,1574329921247,0.951789051908323,-0.0197536251956014,0.306116636201117
609,32,E0:5B:41:FE:20:24,1574329921247,0.951789051908323,-0.0197536251956014,0.306116636201117
610,32,C0:09:55:11:5C:0F,1574329921702,-0.297532861517438,-0.945743831805768,0.130548078954032
611,32,C0:09:55:11:5C:0F,1574329921702,-0.297532861517438,-0.945743831805768,0.130548078954032
612,32,C0:09:55:11:5C:0F,1574329921702,-0.297532861517438,-0.945743831805768,0.130548078954032
613,32,CF:CF:2F:51:CA:2E,1574329921725,-0.781181562242265,-0.0555646674032411,0.621826289689574
614,32,CF:CF:2F:51:CA:2E,1574329921725,-0.781181562242265,-0.0555646674032411,0.621826289689574
615,32,CF:CF:2F:51:CA:2E,1574329921725,-0.781181562242265,-0.0555646674032411,0.621826289689574
616,32,D2:C0:A5:F4:45:84,1574329921739,0.364040446432687,0.87747363781993,0.312273226985837
617,32,D2:C0:A5:F4:45:84,1574329921739,0.364040446432687,0.87747363781993,0.312273226985837
618,32,D2:C0:A5:F4:45:84,1574329921739,0.364040446432687,0.87747363781993,0.312273226985837
619,32,E0:5B:41:FE:20:24,1574329922382,0.967006449425037,-0.010325563767106,0.254542549494725
620,32,E0:5B:41:FE:20:24,1574329922382,0.967006449425037,-0.010325563767106,0.254542549494725
621,32,E0:5B:41:FE:20:24,1574329922382,0.967006449425037,-0.010325563767106,0.254542549494725
622,32,CF:CF:2F:51:CA:2E,1574329922746,-0.652401114906997,-0.38990231690476,0.649883811569735
623,32,CF:CF:2F:51:CA:2E,1574329922746,-0.652401114906997,-0.38990231690476,0.649883811569735
624,32,CF:CF:2F:51:CA:2E,1574329922746,-0.652401114906997,-0.38990231690476,0.649883811569735
625,32,D2:C0:A5:F4:45:84,1574329922750,0.189688932312535,0.95361329732051,0.233751552148076
626,32,D2:C0:A5:F4:45:84,1574329922750,0.189688932312535,0.95361329732051,0.233751552148076
627,32,D2:C0:A5:F4:45:84,1574329922750,0.189688932312535,0.95361329732051,0.233751552148076
628,32,C0:09:55:11:5C:0F,1574329922825,-0.21448460995578,-0.964157095623791,-0.156196821511873
629,32,C0:09:55:11:5C:0F,1574329922825,-0.21448460995578,-0.964157095623791,-0.156196821511873
630,32,C0:09:55:11:5C:0F,1574329922825,-0.21448460995578,-0.964157095623791,-0.156196821511873
631,32,E0:5B:41:FE:20:24,1574329923331,0.970520344449916,-0.0144659110596078,0.240584701147084
632,32,E0:5B:41:FE:20:24,1574329923331,0.970520344449916,-0.0144659110596078,0.240584701147084
633,32,E0:5B:41:FE:20:24,1574329923331,0.970520344449916,-0.0144659110596078,0.240584701147084
634,32,D2:C0:A5:F4:45:84,1574329923709,0.493689962790389,0.848240835092266,0.191722993722711
635,32,D2:C0:A5:F4:45:84,1574329923709,0.493689962790389,0.848240835092266,0.191722993722711
636,32,D2:C0:A5:F4:45:84,1574329923709,0.493689962790389,0.848240835092266,0.191722993722711
637,32,C0:09:55:11:5C:0F,1574329923785,-0.247329603177441,-0.949278323023394,0.194161615233246
638,32,C0:09:55:11:5C:0F,1574329923785,-0.247329603177441,-0.949278323023394,0.194161615233246
639,32,C0:09:55:11:5C:0F,1574329923785,-0.247329603177441,-0.949278323023394,0.194161615233246
640,32,CF:CF:2F:51:CA:2E,1574329923863,-0.839000872193736,-0.0418514039371078,0.54251819918473
641,32,CF:CF:2F:51:CA:2E,1574329923863,-0.839000872193736,-0.0418514039371078,0.54251819918473
642,32,CF:CF:2F:51:CA:2E,1574329923863,-0.839000872193736,-0.0418514039371078,0.54251819918473
643,32,E0:5B:41:FE:20:24,1574329924288,0.968228803434971,-0.0307393062134908,0.248169456727449
644,32,E0:5B:41:FE:20:24,1574329924288,0.968228803434971,-0.0307393062134908,0.248169456727449
645,32,E0:5B:41:FE:20:24,1574329924288,0.968228803434971,-0.0307393062134908,0.248169456727449
646,32,D2:C0:A5:F4:45:84,1574329924665,0.303415728834371,0.916787884849243,0.259689949150056
647,32,D2:C0:A5:F4:45:84,1574329924665,0.303415728834371,0.916787884849243,0.259689949150056
648,32,D2:C0:A5:F4:45:84,1574329924665,0.303415728834371,0.916787884849243,0.259689949150056
649,32,CF:CF:2F:51:CA:2E,1574329924706,-0.766046553159003,-0.244767475634652,0.594358108605116
650,32,CF:CF:2F:51:CA:2E,1574329924706,-0.766046553159003,-0.244767475634652,0.594358108605116
651,32,CF:CF:2F:51:CA:2E,1574329924706,-0.766046553159003,-0.244767475634652,0.594358108605116
652,32,C0:09:55:11:5C:0F,1574329924740,-0.231702212694073,-0.947018171558938,-0.222420024660182
653,32,C0:09:55:11:5C:0F,1574329924740,-0.231702212694073,-0.947018171558938,-0.222420024660182
654,32,C0:09:55:11:5C:0F,1574329924740,-0.231702212694073,-0.947018171558938,-0.222420024660182
655,33,E0:5B:41:FE:20:24,1574329975383,0.974043744148713,0.177366855807155,0.140640616273679
656,33,E0:5B:41:FE:20:24,1574329975383,0.974043744148713,0.177366855807155,0.140640616273679
657,33,E0:5B:41:FE:20:24,1574329975383,0.974043744148713,0.177366855807155,0.140640616273679
658,33,C0:09:55:11:5C:0F,1574329976036,-0.298702128200358,-0.949884691913794,0.0921743493408691
659,33,D2:C0:A5:F4:45:84,1574329976036,-0.221641527749746,0.776903277662448,0.589318530451999
660,33,D2:C0:A5:F4:45:84,1574329976036,-0.221641527749746,0.776903277662448,0.589318530451999
661,33,D2:C0:A5:F4:45:84,1574329976036,-0.221641527749746,0.776903277662448,0.589318530451999
662,33,CF:CF:2F:51:CA:2E,1574329976037,0.0922957960294029,0.0140987278974049,0.995631815435291
663,33,CF:CF:2F:51:CA:2E,1574329976037,0.0922957960294029,0.0140987278974049,0.995631815435291
664,33,CF:CF:2F:51:CA:2E,1574329976037,0.0922957960294029,0.0140987278974049,0.995631815435291
665,33,C0:09:55:11:5C:0F,1574329976036,-0.298702128200358,-0.949884691913794,0.0921743493408691
666,33,C0:09:55:11:5C:0F,1574329976036,-0.298702128200358,-0.949884691913794,0.0921743493408691
667,33,E0:5B:41:FE:20:24,1574329976282,0.953673010025989,0.162851883117121,0.252956624964
668,33,E0:5B:41:FE:20:24,1574329976282,0.953673010025989,0.162851883117121,0.252956624964
669,33,E0:5B:41:FE:20:24,1574329976282,0.953673010025989,0.162851883117121,0.252956624964
670,33,C0:09:55:11:5C:0F,1574329976925,-0.217603953878537,-0.974723797753753,0.0506165718804424
671,33,D2:C0:A5:F4:45:84,1574329976925,-0.416461997872426,0.706498032105008,0.572206199686668
672,33,D2:C0:A5:F4:45:84,1574329976925,-0.416461997872426,0.706498032105008,0.572206199686668
673,33,D2:C0:A5:F4:45:84,1574329976925,-0.416461997872426,0.706498032105008,0.572206199686668
674,33,C0:09:55:11:5C:0F,1574329976925,-0.217603953878537,-0.974723797753753,0.0506165718804424
675,33,C0:09:55:11:5C:0F,1574329976925,-0.217603953878537,-0.974723797753753,0.0506165718804424
676,33,CF:CF:2F:51:CA:2E,1574329976927,0.273522658376711,-0.101779220774913,0.956465548555194
677,33,CF:CF:2F:51:CA:2E,1574329976927,0.273522658376711,-0.101779220774913,0.956465548555194
678,33,CF:CF:2F:51:CA:2E,1574329976927,0.273522658376711,-0.101779220774913,0.956465548555194
679,33,E0:5B:41:FE:20:24,1574329977561,0.850327389709192,-0.115609328925682,0.513398298960666
680,33,E0:5B:41:FE:20:24,1574329977561,0.850327389709192,-0.115609328925682,0.513398298960666
681,33,E0:5B:41:FE:20:24,1574329977561,0.850327389709192,-0.115609328925682,0.513398298960666
682,33,D2:C0:A5:F4:45:84,1574329977655,-0.526239791490891,0.403425904668893,0.748544735666285
683,33,D2:C0:A5:F4:45:84,1574329977655,-0.526239791490891,0.403425904668893,0.748544735666285
684,33,D2:C0:A5:F4:45:84,1574329977655,-0.526239791490891,0.403425904668893,0.748544735666285
685,33,C0:09:55:11:5C:0F,1574329977728,-0.0961080914202931,-0.995352962031742,0.00597626456801315
686,33,C0:09:55:11:5C:0F,1574329977728,-0.0961080914202931,-0.995352962031742,0.00597626456801315
687,33,C0:09:55:11:5C:0F,1574329977728,-0.0961080914202931,-0.995352962031742,0.00597626456801315
688,33,CF:CF:2F:51:CA:2E,1574329977754,0.424858999883944,0.0122150472537684,0.905177122356836
689,33,CF:CF:2F:51:CA:2E,1574329977754,0.424858999883944,0.0122150472537684,0.905177122356836
690,33,CF:CF:2F:51:CA:2E,1574329977754,0.424858999883944,0.0122150472537684,0.905177122356836
691,33,E0:5B:41:FE:20:24,1574329978412,0.897878876914088,-0.0113796468764425,0.440095473765026
692,33,E0:5B:41:FE:20:24,1574329978412,0.897878876914088,-0.0113796468764425,0.440095473765026
693,33,E0:5B:41:FE:20:24,1574329978412,0.897878876914088,-0.0113796468764425,0.440095473765026
694,33,C0:09:55:11:5C:0F,1574329978689,-0.176727238683234,-0.984221613496602,0.00867747852455715
695,33,D2:C0:A5:F4:45:84,1574329978689,-0.454094388516802,0.374020361915032,0.808645197345845
696,33,D2:C0:A5:F4:45:84,1574329978689,-0.454094388516802,0.374020361915032,0.808645197345845
697,33,D2:C0:A5:F4:45:84,1574329978689,-0.454094388516802,0.374020361915032,0.808645197345845
698,33,C0:09:55:11:5C:0F,1574329978689,-0.176727238683234,-0.984221613496602,0.00867747852455715
699,33,C0:09:55:11:5C:0F,1574329978689,-0.176727238683234,-0.984221613496602,0.00867747852455715
700,33,CF:CF:2F:51:CA:2E,1574329978708,0.317869924788319,0.0210242482010671,0.947901203661356
701,33,CF:CF:2F:51:CA:2E,1574329978708,0.317869924788319,0.0210242482010671,0.947901203661356
702,33,CF:CF:2F:51:CA:2E,1574329978708,0.317869924788319,0.0210242482010671,0.947901203661356
703,33,E0:5B:41:FE:20:24,1574329979357,0.963507288523472,0.0672024127730467,0.259109128900599
704,33,E0:5B:41:FE:20:24,1574329979357,0.963507288523472,0.0672024127730467,0.259109128900599
705,33,E0:5B:41:FE:20:24,1574329979357,0.963507288523472,0.0672024127730467,0.259109128900599
706,33,C0:09:55:11:5C:0F,1574329979992,-0.352846749261926,-0.927709430643714,-0.121878561814648
707,33,CF:CF:2F:51:CA:2E,1574329979992,0.110186714135857,0.3496888704264,0.930363682614413
708,33,CF:CF:2F:51:CA:2E,1574329979992,0.110186714135857,0.3496888704264,0.930363682614413
709,33,CF:CF:2F:51:CA:2E,1574329979992,0.110186714135857,0.3496888704264,0.930363682614413
710,33,D2:C0:A5:F4:45:84,1574329979993,-0.22640217218749,0.467704934621186,0.854396951398925
711,33,D2:C0:A5:F4:45:84,1574329979993,-0.22640217218749,0.467704934621186,0.854396951398925
712,33,D2:C0:A5:F4:45:84,1574329979993,-0.22640217218749,0.467704934621186,0.854396951398925
713,33,C0:09:55:11:5C:0F,1574329979992,-0.352846749261926,-0.927709430643714,-0.121878561814648
714,33,C0:09:55:11:5C:0F,1574329979992,-0.352846749261926,-0.927709430643714,-0.121878561814648
715,33,E0:5B:41:FE:20:24,1574329980284,0.974354107062566,-0.0897931771836583,0.206328038282668
716,33,E0:5B:41:FE:20:24,1574329980284,0.974354107062566,-0.0897931771836583,0.206328038282668
717,33,E0:5B:41:FE:20:24,1574329980284,0.974354107062566,-0.0897931771836583,0.206328038282668
718,33,D2:C0:A5:F4:45:84,1574329980932,0.17468933036757,0.654991472106241,0.735166518092214
719,33,C0:09:55:11:5C:0F,1574329980932,-0.367584465233189,-0.871567624773863,0.324424931787429
720,33,D2:C0:A5:F4:45:84,1574329980932,0.17468933036757,0.654991472106241,0.735166518092214
721,33,D2:C0:A5:F4:45:84,1574329980932,0.17468933036757,0.654991472106241,0.735166518092214
722,33,CF:CF:2F:51:CA:2E,1574329980932,-0.33406320713411,0.0583346694646292,0.940743769566254
723,33,CF:CF:2F:51:CA:2E,1574329980932,-0.33406320713411,0.0583346694646292,0.940743769566254
724,33,CF:CF:2F:51:CA:2E,1574329980932,-0.33406320713411,0.0583346694646292,0.940743769566254
725,33,C0:09:55:11:5C:0F,1574329980932,-0.367584465233189,-0.871567624773863,0.324424931787429
726,33,C0:09:55:11:5C:0F,1574329980932,-0.367584465233189,-0.871567624773863,0.324424931787429
727,33,E0:5B:41:FE:20:24,1574329981574,0.949339545822838,-0.0702520630850645,0.306298995050881
728,33,E0:5B:41:FE:20:24,1574329981574,0.949339545822838,-0.0702520630850645,0.306298995050881
729,33,E0:5B:41:FE:20:24,1574329981574,0.949339545822838,-0.0702520630850645,0.306298995050881
730,33,D2:C0:A5:F4:45:84,1574329981645,0.227225016601102,0.508408856066752,0.830595706046886
731,33,D2:C0:A5:F4:45:84,1574329981645,0.227225016601102,0.508408856066752,0.830595706046886
732,33,D2:C0:A5:F4:45:84,1574329981645,0.227225016601102,0.508408856066752,0.830595706046886
733,33,C0:09:55:11:5C:0F,1574329981719,-0.0378988189189713,-0.997960261633775,-0.0513711565413298
734,33,C0:09:55:11:5C:0F,1574329981719,-0.0378988189189713,-0.997960261633775,-0.0513711565413298
735,33,C0:09:55:11:5C:0F,1574329981719,-0.0378988189189713,-0.997960261633775,-0.0513711565413298
736,33,CF:CF:2F:51:CA:2E,1574329981743,-0.220964092219327,0.306587677954316,0.92583954639898
737,33,CF:CF:2F:51:CA:2E,1574329981743,-0.220964092219327,0.306587677954316,0.92583954639898
738,33,CF:CF:2F:51:CA:2E,1574329981743,-0.220964092219327,0.306587677954316,0.92583954639898
739,33,E0:5B:41:FE:20:24,1574329982279,0.966892237557809,-0.131019900862955,0.218982160296939
740,33,E0:5B:41:FE:20:24,1574329982279,0.966892237557809,-0.131019900862955,0.218982160296939
741,33,E0:5B:41:FE:20:24,1574329982279,0.966892237557809,-0.131019900862955,0.218982160296939
742,33,D2:C0:A5:F4:45:84,1574329982657,0.259673248505822,0.832672215530448,0.489108153166606
743,33,D2:C0:A5:F4:45:84,1574329982657,0.259673248505822,0.832672215530448,0.489108153166606
744,33,D2:C0:A5:F4:45:84,1574329982657,0.259673248505822,0.832672215530448,0.489108153166606
745,33,C0:09:55:11:5C:0F,1574329982732,-0.198026312088722,-0.97519526926417,-0.0988927020832366
746,33,C0:09:55:11:5C:0F,1574329982732,-0.198026312088722,-0.97519526926417,-0.0988927020832366
747,33,C0:09:55:11:5C:0F,1574329982732,-0.198026312088722,-0.97519526926417,-0.0988927020832366
748,33,CF:CF:2F:51:CA:2E,1574329982867,-0.646235410233219,-0.101256581073471,0.756390705488913
749,33,CF:CF:2F:51:CA:2E,1574329982867,-0.646235410233219,-0.101256581073471,0.756390705488913
750,33,CF:CF:2F:51:CA:2E,1574329982867,-0.646235410233219,-0.101256581073471,0.756390705488913
751,33,E0:5B:41:FE:20:24,1574329983357,0.993101454797013,-0.10865002820934,0.044098433647534
752,33,E0:5B:41:FE:20:24,1574329983357,0.993101454797013,-0.10865002820934,0.044098433647534
753,33,E0:5B:41:FE:20:24,1574329983357,0.993101454797013,-0.10865002820934,0.044098433647534
754,33,C0:09:55:11:5C:0F,1574329983698,-0.170180364839843,-0.970951538931198,-0.168201523388217
755,33,C0:09:55:11:5C:0F,1574329983698,-0.170180364839843,-0.970951538931198,-0.168201523388217
756,33,C0:09:55:11:5C:0F,1574329983698,-0.170180364839843,-0.970951538931198,-0.168201523388217
757,33,D2:C0:A5:F4:45:84,1574329983787,0.315636935025495,0.735910767316489,0.599006400462772
758,33,D2:C0:A5:F4:45:84,1574329983787,0.315636935025495,0.735910767316489,0.599006400462772
759,33,D2:C0:A5:F4:45:84,1574329983787,0.315636935025495,0.735910767316489,0.599006400462772
760,33,CF:CF:2F:51:CA:2E,1574329983826,-0.619202609208105,0.0983650731272135,0.779045853039827
761,33,CF:CF:2F:51:CA:2E,1574329983826,-0.619202609208105,0.0983650731272135,0.779045853039827
762,33,CF:CF:2F:51:CA:2E,1574329983826,-0.619202609208105,0.0983650731272135,0.779045853039827
763,33,E0:5B:41:FE:20:24,1574329984265,0.980487036182497,-0.12702471991609,0.150032971070702
764,33,E0:5B:41:FE:20:24,1574329984265,0.980487036182497,-0.12702471991609,0.150032971070702
765,33,E0:5B:41:FE:20:24,1574329984265,0.980487036182497,-0.12702471991609,0.150032971070702
766,33,D2:C0:A5:F4:45:84,1574329984694,0.544882389310731,0.739152425655838,0.395925338247149
767,33,D2:C0:A5:F4:45:84,1574329984694,0.544882389310731,0.739152425655838,0.395925338247149
768,33,D2:C0:A5:F4:45:84,1574329984694,0.544882389310731,0.739152425655838,0.395925338247149
769,33,C0:09:55:11:5C:0F,1574329984701,-0.112676009637414,-0.993630161420377,0.00179420397511805
770,33,C0:09:55:11:5C:0F,1574329984701,-0.112676009637414,-0.993630161420377,0.00179420397511805
771,33,C0:09:55:11:5C:0F,1574329984701,-0.112676009637414,-0.993630161420377,0.00179420397511805
772,33,CF:CF:2F:51:CA:2E,1574329984724,-0.756590628872763,0.126488835786778,0.641538147519866
773,33,CF:CF:2F:51:CA:2E,1574329984724,-0.756590628872763,0.126488835786778,0.641538147519866
774,33,CF:CF:2F:51:CA:2E,1574329984724,-0.756590628872763,0.126488835786778,0.641538147519866
775,34,E0:5B:41:FE:20:24,1574330794249,0.924764904164016,0.010466488510071,-0.380394958753118
776,34,D2:C0:A5:F4:45:84,1574330794740,0.265703339097542,0.940553207740461,0.211568898946763
777,34,C0:09:55:11:5C:0F,1574330794757,-0.186369207059577,-0.0803221178736944,0.979190929308615
778,34,CF:CF:2F:51:CA:2E,1574330794782,-0.699009906612927,-0.318759547157611,0.640138658067814
779,34,E0:5B:41:FE:20:24,1574330795384,0.92551687615305,0.0105529580735549,-0.378559304510927
780,34,C0:09:55:11:5C:0F,1574330795726,-0.190635212224334,-0.147482828941462,0.970518949339788
781,34,CF:CF:2F:51:CA:2E,1574330795737,-0.717736858444648,-0.21854573362882,0.661129007337183
782,34,D2:C0:A5:F4:45:84,1574330795751,0.333831359842204,0.923799638662918,0.187485601559605
783,34,E0:5B:41:FE:20:24,1574330796284,0.961586099796123,-0.0772458975902573,-0.263410789422824
784,34,D2:C0:A5:F4:45:84,1574330796664,0.32131367161142,0.9185279805426,0.230355971044647
785,34,CF:CF:2F:51:CA:2E,1574330796750,-0.725032732294177,-0.208917042512635,0.656263061927009
786,34,C0:09:55:11:5C:0F,1574330796783,-0.206648178556861,-0.14058069892596,0.968263186013297
787,34,E0:5B:41:FE:20:24,1574330797287,0.933741167598424,0.00194410285966604,-0.357943644162041
788,34,D2:C0:A5:F4:45:84,1574330797668,0.284445084770071,0.942659880039788,0.174594800362208
789,34,C0:09:55:11:5C:0F,1574330797741,-0.20152307017201,-0.102382364068622,0.974118218552639
790,34,CF:CF:2F:51:CA:2E,1574330797764,-0.731752279170065,-0.261544006153298,0.6293912414188
791,34,E0:5B:41:FE:20:24,1574330798367,0.936989568806408,0.0175836384186656,-0.348914550582148
792,34,D2:C0:A5:F4:45:84,1574330798744,0.297850715237062,0.919752580618255,0.255617178371938
793,34,C0:09:55:11:5C:0F,1574330798750,-0.191818156510692,-0.112097986499866,0.975007608306476
794,34,CF:CF:2F:51:CA:2E,1574330798777,-0.648722857862785,-0.202717088483072,0.733528755893924
795,34,E0:5B:41:FE:20:24,1574330799322,0.997408792861495,0.0245582787981243,-0.0676209351092539
796,34,C0:09:55:11:5C:0F,1574330799720,0.105550681682815,0.035856930141052,0.99376724345148
797,34,CF:CF:2F:51:CA:2E,1574330799788,-0.81587185782179,0.0565593333560669,0.575459949453251
798,34,D2:C0:A5:F4:45:84,1574330799802,0.475559840567472,0.838790090415318,0.265092478694706
799,34,E0:5B:41:FE:20:24,1574330800269,0.991510853233071,-0.00350027366403767,0.129976828724599
800,34,D2:C0:A5:F4:45:84,1574330800705,0.638445183124613,0.742417559698033,-0.202987475468308
801,34,C0:09:55:11:5C:0F,1574330800733,-0.100525118784553,-0.0737453347977708,0.992197725299205
802,34,CF:CF:2F:51:CA:2E,1574330800742,-0.958326311493405,-0.0173168320240409,0.28515050066254
803,34,E0:5B:41:FE:20:24,1574330801291,0.993852014939573,0.0151957935198773,0.109668866410898
804,34,D2:C0:A5:F4:45:84,1574330801727,0.743390568382222,0.658501814882672,-0.117242580305039
805,34,C0:09:55:11:5C:0F,1574330801733,-0.127192555494497,-0.0336530303079189,0.991306979385232
806,34,CF:CF:2F:51:CA:2E,1574330801756,-0.924878867637298,0.0686579633110299,0.374012251499774
807,34,E0:5B:41:FE:20:24,1574330802304,0.991401978345216,-0.00885500861768811,0.130551545971591
808,34,D2:C0:A5:F4:45:84,1574330802740,0.676801745474205,0.733354902719472,-0.0642649514150765
809,34,C0:09:55:11:5C:0F,1574330802745,-0.109956734918124,-0.0512220814835981,0.992615643043486
810,34,CF:CF:2F:51:CA:2E,1574330802769,-0.895758674387107,0.0769405499358317,0.437831644625905
811,34,E0:5B:41:FE:20:24,1574330803252,0.991000845118243,-0.0372680071839642,0.128562905285562
812,34,D2:C0:A5:F4:45:84,1574330803684,0.661300958559116,0.749048273798507,-0.0400964553080659
813,34,C0:09:55:11:5C:0F,1574330803703,-0.115128540068725,-0.111666991536592,0.987054153662711
814,34,CF:CF:2F:51:CA:2E,1574330803838,-0.883031040121698,0.0340891052698144,0.468074903283114
815,35,E0:5B:41:FE:20:24,1574331390384,0.991945590370229,-0.0408502488356283,-0.119896634294401
816,35,D2:C0:A5:F4:45:84,1574331390663,0.509141225501612,0.858022478782576,0.0676212865784189
817,35,C0:09:55:11:5C:0F,1574331390731,0.0997802924480553,-0.146497452376373,0.984165834443674
818,35,CF:CF:2F:51:CA:2E,1574331390748,-0.733929382757314,-0.184307603615967,0.653741820885591
819,35,E0:5B:41:FE:20:24,1574331391353,0.991954292373382,-0.0404479503511916,-0.119961015144132
820,35,D2:C0:A5:F4:45:84,1574331391676,0.508474170102438,0.858251005637174,0.0697081749970285
821,35,C0:09:55:11:5C:0F,1574331391742,0.0962541443925052,-0.143912663730102,0.984898108895216
822,35,CF:CF:2F:51:CA:2E,1574331391762,-0.745291222343011,-0.184269949277712,0.640769521506485
823,35,E0:5B:41:FE:20:24,1574331392257,0.994113717590594,-0.0400182668218023,-0.100679962349952
824,35,D2:C0:A5:F4:45:84,1574331392678,0.500515365829808,0.864445309206697,0.047102823257128
825,35,C0:09:55:11:5C:0F,1574331392752,0.137510008532189,-0.131565771852123,0.981723711249979
826,35,CF:CF:2F:51:CA:2E,1574331392778,-0.773600695520015,-0.155293277738892,0.614350031968796
827,35,E0:5B:41:FE:20:24,1574331393253,0.991133038308627,-0.0637089785060811,-0.116603886859838
828,35,D2:C0:A5:F4:45:84,1574331393747,0.537532936432595,0.83302958473035,0.13084362122065
829,35,C0:09:55:11:5C:0F,1574331393824,0.0438648165851958,-0.158659974882623,0.986358398471971
830,35,CF:CF:2F:51:CA:2E,1574331393903,-0.661693758655441,-0.166001249089438,0.731166844883698
831,35,E0:5B:41:FE:20:24,1574331394268,0.960771234930243,-0.0253810495114262,-0.276178269341227
832,35,D2:C0:A5:F4:45:84,1574331394714,0.516295412455134,0.826487980521442,0.224402908027885
833,35,C0:09:55:11:5C:0F,1574331394719,0.0134604221203403,-0.128073917402445,0.991673277202494
834,35,CF:CF:2F:51:CA:2E,1574331394857,-0.557229638662141,-0.158379257417365,0.815114188697745
835,35,E0:5B:41:FE:20:24,1574331395403,0.955380973065975,-0.0242336036168444,-0.294380584888429
836,35,C0:09:55:11:5C:0F,1574331395735,0.0707496004511896,-0.150070787110889,0.986140584750428
837,35,CF:CF:2F:51:CA:2E,1574331395758,-0.566982029919115,-0.156548486586041,0.808717471739309
838,35,D2:C0:A5:F4:45:84,1574331395770,0.437263850505962,0.861879573104726,0.256834434033903
839,35,E0:5B:41:FE:20:24,1574331396348,0.953501545082156,-0.0285417481207453,-0.300033618349931
840,36,E0:5B:41:FE:20:24,1574332386357,0.832911201972149,-0.12871662925423,-0.538229466847311
841,36,D2:C0:A5:F4:45:84,1574332386683,0.582241883799275,0.755096957116704,0.301368502174608
842,36,C0:09:55:11:5C:0F,1574332386744,-0.428616727560917,-0.245532539801904,0.869483451684618
843,36,CF:CF:2F:51:CA:2E,1574332386826,-0.803045487079485,0.108775786859407,0.585905942856351
844,36,E0:5B:41:FE:20:24,1574332387249,0.842576298289275,-0.129054232495231,-0.522886399360521
845,36,D2:C0:A5:F4:45:84,1574332387684,0.578278998077447,0.767954509446849,0.275389309528882
846,36,C0:09:55:11:5C:0F,1574332387818,-0.43306670136331,-0.227117604656949,0.872279098583241
847,36,CF:CF:2F:51:CA:2E,1574332387836,-0.807093365543234,0.0967081363519505,0.582449856776897
848,36,E0:5B:41:FE:20:24,1574332388384,0.842625828611997,-0.0994140394966988,-0.52924338607761
849,36,D2:C0:A5:F4:45:84,1574332388711,0.482572973666021,0.787836436854261,0.38267097335951
850,36,C0:09:55:11:5C:0F,1574332388772,-0.382433610705407,-0.24022075865094,0.892209908326506
851,36,CF:CF:2F:51:CA:2E,1574332388794,-0.672357565581604,0.0904267365255623,0.734682454756145
852,37,E0:5B:41:FE:20:24,1574332619389,0.989930778987765,-0.0504656688906132,0.132250781003738
853,37,D2:C0:A5:F4:45:84,1574332619666,0.434054960722559,0.818695649960309,0.375943777456424
854,37,C0:09:55:11:5C:0F,1574332619732,-0.154727033704245,-0.184006975846194,0.970670375503973
855,37,CF:CF:2F:51:CA:2E,1574332619753,-0.742284135087302,0.0091521967336859,0.670022760876558
856,37,E0:5B:41:FE:20:24,1574332620302,0.989493735335666,-0.0510652435325513,0.135257120457413
857,37,D2:C0:A5:F4:45:84,1574332620680,0.424588650133901,0.828031676635259,0.366180311685477
858,37,C0:09:55:11:5C:0F,1574332620745,-0.154785671422807,-0.185255291781627,0.970423553294692
859,37,CF:CF:2F:51:CA:2E,1574332620768,-0.745707661762386,0.0309559889241613,0.665553761869469
860,37,E0:5B:41:FE:20:24,1574332621317,0.987490849118354,-0.0385471538333176,0.152891922085055
861,37,D2:C0:A5:F4:45:84,1574332621683,0.427777130844601,0.821284823030381,0.377489027372077
862,37,C0:09:55:11:5C:0F,1574332621707,-0.17454326190626,-0.18773943993035,0.966586029496475
863,37,CF:CF:2F:51:CA:2E,1574332621780,-0.72333036858609,0.0411997551881198,0.689271904297244
864,37,E0:5B:41:FE:20:24,1574332622260,0.989461220734052,-0.0508551238132751,0.135573777130449
865,37,C0:09:55:11:5C:0F,1574332622838,-0.173847553748318,-0.198876189891072,0.964481876009153
866,37,CF:CF:2F:51:CA:2E,1574332622848,-0.718860464662498,0.0270164529532206,0.694629213044661
867,37,D2:C0:A5:F4:45:84,1574332622863,0.406932235339823,0.824216954161872,0.393792544766228
868,37,E0:5B:41:FE:20:24,1574332623348,0.987115866334478,-0.0513399162259134,0.151546954547593
869,38,E0:5B:41:FE:20:24,1574332631373,0.912693514346767,-0.0416350412848705,0.406518231087555
870,38,D2:C0:A5:F4:45:84,1574332631695,0.497812804373433,0.760228820658184,0.417414125350983
871,38,CF:CF:2F:51:CA:2E,1574332631793,-0.653141797012875,0.0341664511462618,0.756464438431089
872,38,C0:09:55:11:5C:0F,1574332631826,-0.0281457899920263,0.00723748885509247,0.999577627431105
873,38,E0:5B:41:FE:20:24,1574332632284,0.92575820049795,-0.0648890277843469,0.372506601664992
874,38,D2:C0:A5:F4:45:84,1574332632774,0.50862991028717,0.758294382969926,0.407780876350921
875,38,C0:09:55:11:5C:0F,1574332632781,-0.0316911588207291,-0.0211274392138194,0.999274387625774
876,38,CF:CF:2F:51:CA:2E,1574332632805,-0.666729870467097,0.0597113171290892,0.742903653533645
877,38,E0:5B:41:FE:20:24,1574332633297,0.925834657929662,-0.0443122119526947,0.375322013806977
878,38,D2:C0:A5:F4:45:84,1574332633665,0.510563424296792,0.760308585071183,0.40156673821096
879,38,C0:09:55:11:5C:0F,1574332633739,-0.0314641386145427,-0.0238324113761217,0.999220708426944
880,38,CF:CF:2F:51:CA:2E,1574332633761,-0.65722195598653,0.0448610929382183,0.752360806335383
881,38,E0:5B:41:FE:20:24,1574332634298,0.926217145916946,-0.0626817966789536,0.371742909783852
882,38,D2:C0:A5:F4:45:84,1574332634687,0.547689872302917,0.768414386057102,0.331021351391873
883,38,C0:09:55:11:5C:0F,1574332634752,-0.0517869226346609,-0.0155226951566425,0.998537510852299
884,38,CF:CF:2F:51:CA:2E,1574332634775,-0.756529811451764,0.0671895508999675,0.650498430924026
885,38,E0:5B:41:FE:20:24,1574332635265,0.926669821053128,-0.0408021307658041,0.37365522728089
886,38,D2:C0:A5:F4:45:84,1574332635757,0.561956380884067,0.745316509806991,0.358759426625708
887,38,CF:CF:2F:51:CA:2E,1574332635787,-0.730001258252483,0.0748933403775431,0.679329927588123
888,38,C0:09:55:11:5C:0F,1574332635820,-0.0337100703438671,-0.0208169757103562,0.999214834097096
889,38,E0:5B:41:FE:20:24,1574332636279,0.933342372358225,-0.0487967570362411,0.355655581234804
890,38,D2:C0:A5:F4:45:84,1574332636713,0.539478578222106,0.735569138504637,0.409757130650586
891,38,C0:09:55:11:5C:0F,1574332636718,-0.0166305339308544,0.0174352371855732,0.999709676778942
892,38,CF:CF:2F:51:CA:2E,1574332636799,-0.701070544994507,0.0570315324301087,0.710807635897209
893,38,E0:5B:41:FE:20:24,1574332637293,0.930395904558671,-0.0492498158863236,0.363232592722095
894,38,D2:C0:A5:F4:45:84,1574332637670,0.637766879942356,0.739777949393768,0.214434121443731
895,38,C0:09:55:11:5C:0F,1574332637733,-0.0320166156739397,-0.0149321190748206,0.999375789250832
896,38,CF:CF:2F:51:CA:2E,1574332637812,-0.879192754027346,0.0937057782026968,0.467160923448481
897,38,E0:5B:41:FE:20:24,1574332638303,0.94981598634572,-0.0457494093333763,0.309445606896842
898,38,D2:C0:A5:F4:45:84,1574332638682,0.703228534443414,0.709988066730645,-0.0372367217226361
899,38,C0:09:55:11:5C:0F,1574332638745,-0.0402127916945259,-0.0107592753697728,0.999133209025528
900,38,CF:CF:2F:51:CA:2E,1574332638767,-0.956880187726941,0.138289470446248,0.255453182989273
901,38,E0:5B:41:FE:20:24,1574332639313,0.967105413117163,-0.0653261108379622,0.24584470537774
902,38,D2:C0:A5:F4:45:84,1574332639749,0.661904965207398,0.73086398211216,0.166492212084977
903,38,C0:09:55:11:5C:0F,1574332639755,-0.0286633133587744,-0.0362979342066723,0.998929864624952
904,38,CF:CF:2F:51:CA:2E,1574332639893,-0.828674220261986,0.144590694786231,0.540733360959377
905,38,E0:5B:41:FE:20:24,1574332640327,0.937913093291228,-0.0843822131216645,0.336450102603
906,38,D2:C0:A5:F4:45:84,1574332640706,0.675447883215535,0.729723828654443,0.106175755017587
907,38,CF:CF:2F:51:CA:2E,1574332640735,-0.80154464319034,0.111213096736885,0.587501346455531
908,38,C0:09:55:11:5C:0F,1574332640771,-0.0584812032685393,-0.0136500749047849,0.99819518347834
909,39,D2:C0:A5:F4:45:84,1574336170187,0.28220774573982,0.816917158720531,0.502996167015639
910,39,C0:09:55:11:5C:0F,1574336170233,-0.30287295321919,-0.171691445204595,0.937438009604818
911,39,E0:5B:41:FE:20:24,1574336170851,0.979919851873516,-0.0495882646065408,-0.193127128900884
912,39,D2:C0:A5:F4:45:84,1574336171203,0.269756171715323,0.828110780406486,0.491390011290475
913,39,C0:09:55:11:5C:0F,1574336171283,-0.290094380789693,-0.16958524892029,0.941852479734957
914,39,CF:CF:2F:51:CA:2E,1574336171349,-0.475702534116067,-0.0302502350887177,0.879085901554921
915,39,E0:5B:41:FE:20:24,1574336171783,0.980693146499164,-0.037387470311904,-0.191945641975133
916,39,D2:C0:A5:F4:45:84,1574336172224,0.268804474242253,0.828139085554572,0.491863608741472
917,39,C0:09:55:11:5C:0F,1574336172246,-0.292936671965433,-0.169558959845664,0.940977080142695
918,39,CF:CF:2F:51:CA:2E,1574336172374,-0.473432979002425,-0.0349126906906338,0.88013767015259
919,39,E0:5B:41:FE:20:24,1574336172773,0.976516268131468,-0.0494160282640598,-0.209699867012825
920,39,D2:C0:A5:F4:45:84,1574336173215,0.266327804000221,0.839956920308389,0.472802149786214
921,39,C0:09:55:11:5C:0F,1574336173294,-0.291267923619947,-0.17252233151622,0.940956450532293
922,39,CF:CF:2F:51:CA:2E,1574336173394,-0.463355490666223,-0.0330664102068085,0.885555363478478
923,39,E0:5B:41:FE:20:24,1574336173791,0.981807900913567,-0.0444843394277642,-0.184592495105762
924,39,D2:C0:A5:F4:45:84,1574336174205,0.488925643530592,0.788079608709687,0.374008349417741
925,39,C0:09:55:11:5C:0F,1574336174252,-0.29075571890619,-0.170976409093141,0.941396929810672
926,39,CF:CF:2F:51:CA:2E,1574336174350,-0.515221690356932,0.0255744600794292,0.8566752924985
927,39,E0:5B:41:FE:20:24,1574336174806,0.976486295785642,-0.0467534724012848,-0.210448632595361
928,39,D2:C0:A5:F4:45:84,1574336175194,0.461582423201866,0.802906327830353,0.377204315088085
929,39,C0:09:55:11:5C:0F,1574336175323,-0.287073385307188,-0.17782008485803,0.941259203869664
930,39,CF:CF:2F:51:CA:2E,1574336175370,-0.474338725702711,-0.00654356328383546,0.880318098801949
931,39,E0:5B:41:FE:20:24,1574336175825,0.976552914870869,-0.0484747863204471,-0.209748896417591
932,39,C0:09:55:11:5C:0F,1574336176224,-0.2928975332563,-0.170368504686075,0.94084303027838
933,39,D2:C0:A5:F4:45:84,1574336176228,0.437528251395196,0.802723730586642,0.405220485148675
934,39,CF:CF:2F:51:CA:2E,1574336176388,-0.478797323759282,0.0136960602785757,0.877818626308303
935,39,E0:5B:41:FE:20:24,1574336176856,0.979977023553184,-0.0512961266928135,-0.192389554534951
936,39,D2:C0:A5:F4:45:84,1574336177265,0.440137210732366,0.802556971055985,0.402717697572599
937,39,C0:09:55:11:5C:0F,1574336177423,-0.296214444342025,-0.166398805370013,0.940514986873988
938,39,CF:CF:2F:51:CA:2E,1574336177467,-0.445530618421917,0.0172697082476767,0.895100120224338
939,39,E0:5B:41:FE:20:24,1574336177877,0.980634882476552,-0.0502591374101163,-0.189286149458933
940,39,D2:C0:A5:F4:45:84,1574336178220,0.41955970600506,0.813937835498543,0.401839337348765
941,39,C0:09:55:11:5C:0F,1574336178263,-0.293968674223279,-0.181019225380182,0.938517159469216
942,39,CF:CF:2F:51:CA:2E,1574336178432,-0.442423732793848,0.0125688560452798,0.896718051852683
943,39,E0:5B:41:FE:20:24,1574336178837,0.97801110818225,-0.0450819197870477,-0.203621935901909
944,39,D2:C0:A5:F4:45:84,1574336179236,0.406499038113121,0.812865015984634,0.417143857441779
945,39,C0:09:55:11:5C:0F,1574336179236,-0.293918207108054,-0.183067494534092,0.938135587202296
946,39,CF:CF:2F:51:CA:2E,1574336179464,-0.449828859125337,0.0261834476053861,0.892730880259831
947,39,E0:5B:41:FE:20:24,1574336179798,0.976153809480981,-0.0295944859609619,-0.215053264649656
948,40,E0:5B:41:FE:20:24,1574336667014,0.998858323733651,0.0325540238627906,0.0349611875991237
949,40,D2:C0:A5:F4:45:84,1574336667248,0.52481866512989,0.816039623418956,0.242166681732912
950,40,C0:09:55:11:5C:0F,1574336667320,-0.336983610908735,-0.868874028735763,0.362629243397984
951,40,CF:CF:2F:51:CA:2E,1574336667367,-0.830276009152252,0.0176826787837661,0.557071872829027
952,40,E0:5B:41:FE:20:24,1574336668031,0.997841870989178,-0.0655663681864324,0.00355694583289869
953,40,C0:09:55:11:5C:0F,1574336668232,-0.309501602429669,-0.87286406977356,0.377249352274865
954,40,D2:C0:A5:F4:45:84,1574336668233,0.599939230996512,0.782496496994188,0.16664978638792
955,40,CF:CF:2F:51:CA:2E,1574336668386,-0.892160941825863,0.0715608400290722,0.446013340669002
956,40,E0:5B:41:FE:20:24,1574336669050,0.995025327001729,-0.0961474490883358,-0.0260819220708186
957,40,C0:09:55:11:5C:0F,1574336669251,-0.311507411452479,-0.873775859269201,0.373468714042481
958,40,D2:C0:A5:F4:45:84,1574336669252,0.554169194639589,0.811024574874416,0.187445039044201
959,40,CF:CF:2F:51:CA:2E,1574336669345,-0.892186615579837,0.0631648359780367,0.447228405265211
960,40,E0:5B:41:FE:20:24,1574336670010,0.998957328869308,-0.0345229609814038,0.0298734039468713
961,40,D2:C0:A5:F4:45:84,1574336670207,0.578597701629588,0.775977575557103,0.251164292648216
962,40,C0:09:55:11:5C:0F,1574336670263,-0.305935275895187,-0.888374079624758,0.342337701128285
963,40,CF:CF:2F:51:CA:2E,1574336670366,-0.834515912628559,0.0673968859181305,0.546846277612148
964,40,E0:5B:41:FE:20:24,1574336670823,0.998058360347441,-0.0618276506351913,-0.00753995739453552
965,40,C0:09:55:11:5C:0F,1574336671219,-0.310677195726322,-0.884398584534407,0.348308518025567
966,40,D2:C0:A5:F4:45:84,1574336671226,0.606885873588798,0.766911763669341,0.208652541762476
967,40,CF:CF:2F:51:CA:2E,1574336671384,-0.888558264931876,0.114630902131464,0.444211623100725
968,40,E0:5B:41:FE:20:24,1574336671901,0.998269218751333,-0.0503671139267452,-0.030359853891179
969,40,D2:C0:A5:F4:45:84,1574336672308,0.566678294831229,0.784296096670694,0.25249820378427
970,40,CF:CF:2F:51:CA:2E,1574336672345,-0.876092915151011,0.103102186993857,0.47098953604012
971,40,C0:09:55:11:5C:0F,1574336672359,-0.346680469401063,-0.876705201567045,0.333467602146213
972,40,E0:5B:41:FE:20:24,1574336672802,0.99790970397823,0.00210999350071751,-0.0645892454941859
973,40,D2:C0:A5:F4:45:84,1574336673328,0.618665967234858,0.755889837620284,0.214203114747983
974,40,CF:CF:2F:51:CA:2E,1574336673365,-0.881755099047005,0.131353687388374,0.453049836236682
975,40,C0:09:55:11:5C:0F,1574336673381,-0.355817544578542,-0.864273088878388,0.355564203500166
976,40,E0:5B:41:FE:20:24,1574336673883,0.999569836898309,-0.0290606418449328,-0.00395224729091086
977,40,C0:09:55:11:5C:0F,1574336674220,-0.372871871904972,-0.853919503533221,0.363026236830975
978,40,D2:C0:A5:F4:45:84,1574336674347,0.599528820360766,0.777153041635993,0.191306935140244
979,40,CF:CF:2F:51:CA:2E,1574336674446,-0.894070368126332,0.141646806119462,0.424940418358387
980,40,E0:5B:41:FE:20:24,1574336674912,0.999882241629726,-0.0149149198145443,0.00361220714258495
981,40,C0:09:55:11:5C:0F,1574336675253,-0.362681495151103,-0.858066828689078,0.363570420384317
982,40,D2:C0:A5:F4:45:84,1574336675368,0.566943174688419,0.793645253161308,0.220686766274603
983,40,CF:CF:2F:51:CA:2E,1574336675465,-0.875719325880393,0.0898420612411464,0.47438809672201
984,40,E0:5B:41:FE:20:24,1574336675805,0.999284036792209,-0.0325954718431755,-0.0192080459075856
985,40,C0:09:55:11:5C:0F,1574336676261,-0.414172496531157,-0.842427360886081,0.344640805401306
986,40,D2:C0:A5:F4:45:84,1574336676268,0.60313869683293,0.777788801736962,0.176828426095059
987,40,CF:CF:2F:51:CA:2E,1574336676487,-0.885789115102566,0.0855506887190888,0.456134545091142
988,41,CF:CF:2F:51:CA:2E,1574338686836,-0.733548410563674,0.105955459716551,0.671327170547835
989,41,E0:5B:41:FE:20:24,1574338686925,0.930761324196877,-0.00745331805350569,-0.365551371806029
990,41,C0:09:55:11:5C:0F,1574338687170,0.465600826990893,0.11679883759275,0.877253612954873
991,41,D2:C0:A5:F4:45:84,1574338687331,0.485375988480062,0.78733259454633,0.380154620348021
992,41,E0:5B:41:FE:20:24,1574338687945,0.937928945356077,-0.0333419647078694,-0.345221098504503
993,41,CF:CF:2F:51:CA:2E,1574338687970,-0.784821587720955,0.0972759903319863,0.612039587896152
994,41,C0:09:55:11:5C:0F,1574338688119,0.478076974401362,0.093688096887165,0.873306903126788
995,41,D2:C0:A5:F4:45:84,1574338688472,0.502515504062259,0.797188395420112,0.334617438853029
996,41,CF:CF:2F:51:CA:2E,1574338688873,-0.77079309075651,0.0816887935886676,0.63182667895876
997,41,E0:5B:41:FE:20:24,1574338688966,0.933603154935264,-0.0078244403851006,-0.358223292413519
998,41,C0:09:55:11:5C:0F,1574338689140,0.431237525936861,0.161881999611812,0.887596988742941
999,41,D2:C0:A5:F4:45:84,1574338689311,0.497982570679928,0.785064099880611,0.368358138742251
1000,41,CF:CF:2F:51:CA:2E,1574338689829,-0.751533468149727,0.129908322924006,0.646777607749306
1001,41,E0:5B:41:FE:20:24,1574338689987,0.925609143357365,-0.00993578977987901,-0.378350358549711
1002,41,C0:09:55:11:5C:0F,1574338690160,0.425038772955832,0.118227059680474,0.897420973592388
1003,41,D2:C0:A5:F4:45:84,1574338690393,0.482302039082281,0.800870061640293,0.354953359563405
1004,42,CF:CF:2F:51:CA:2E,1574338893947,-0.718011234999352,0.145483989724101,0.680657237637758
1005,42,E0:5B:41:FE:20:24,1574338893984,0.95140847328026,-0.0613579970171927,0.301756711893147
1006,42,C0:09:55:11:5C:0F,1574338894158,-0.0963690255245997,-0.182587004584912,0.978455413739506
1007,42,D2:C0:A5:F4:45:84,1574338894330,0.627970993904006,0.775344533513848,0.0670319712182697
1008,42,CF:CF:2F:51:CA:2E,1574338894849,-0.971518054622987,0.12293396443034,0.202583093892373
1009,42,E0:5B:41:FE:20:24,1574338894886,0.976815378657822,-0.0620123936254228,0.204905292890205
1010,42,C0:09:55:11:5C:0F,1574338895126,-0.0484216984952966,-0.158854836480483,0.986113827122199
1011,42,D2:C0:A5:F4:45:84,1574338895363,0.621267556457833,0.775518483878732,0.112239495968866
1012,42,CF:CF:2F:51:CA:2E,1574338895880,-0.973786003682056,0.169517122669921,0.151673215020456
1013,42,E0:5B:41:FE:20:24,1574338895907,0.952676739663865,-0.0534590275740172,0.299247660098234
1014,42,C0:09:55:11:5C:0F,1574338896153,-0.0545653131620065,-0.113721457960239,0.992013133279459
1015,42,D2:C0:A5:F4:45:84,1574338896315,0.64988120300038,0.756489820598583,0.0733319392727529
1016,42,CF:CF:2F:51:CA:2E,1574338896890,-0.888064075372741,0.080127148288981,0.452682933342349
1017,42,E0:5B:41:FE:20:24,1574338896931,0.95293127257692,-0.045669197567929,0.299727066075845
1018,42,C0:09:55:11:5C:0F,1574338897160,-0.061708707094073,-0.117572756908311,0.991145136850178
1019,42,D2:C0:A5:F4:45:84,1574338897331,0.477172419461718,0.857775731048224,0.191121106447547
1020,42,CF:CF:2F:51:CA:2E,1574338897850,-0.933811176185477,0.0937953134471605,0.345252264882426
1021,42,E0:5B:41:FE:20:24,1574338898006,0.895587833213076,-0.0666057857711688,0.439870551756436
1022,42,C0:09:55:11:5C:0F,1574338898249,-0.0920710641885668,-0.0996869867802356,0.990749930005479
1023,42,D2:C0:A5:F4:45:84,1574338898413,0.592611712319133,0.794817481219753,0.130677197588836
1024,42,E0:5B:41:FE:20:24,1574338898967,0.913033178791501,-0.0431864333681435,0.405592586715815
1025,42,CF:CF:2F:51:CA:2E,1574338898988,-0.889018386658951,0.051344816725259,0.454983535941428
1026,42,C0:09:55:11:5C:0F,1574338899145,-0.0862651221531698,-0.119653881781731,0.989060805650726
1027,42,D2:C0:A5:F4:45:84,1574338899373,0.568175815586237,0.817158893329118,0.0970957549846855
1028,42,CF:CF:2F:51:CA:2E,1574338899829,-0.913624537761018,0.117490556063872,0.389212247028236
1029,42,E0:5B:41:FE:20:24,1574338899929,0.934586627637182,-0.0266584674465474,0.354735340155391
1030,42,C0:09:55:11:5C:0F,1574338900165,-0.106219869381371,-0.0720222528976123,0.991730878028993
1031,42,D2:C0:A5:F4:45:84,1574338900332,0.581880804708518,0.809358286435927,0.0797113121788075
1032,42,CF:CF:2F:51:CA:2E,1574338900909,-0.893004885677256,0.0632303475206294,0.44558298588363
1033,42,E0:5B:41:FE:20:24,1574338900946,0.98639329093286,-0.0302042068591858,0.161604398116667
1034,42,C0:09:55:11:5C:0F,1574338901121,-0.0364453971257993,-0.000541938990718205,0.99933549888437
1035,42,D2:C0:A5:F4:45:84,1574338901356,0.545343189827859,0.827311854535677,0.134743833451162
1036,42,CF:CF:2F:51:CA:2E,1574338901883,-0.92926488172834,0.0671790382360088,0.363254396268096
1037,42,E0:5B:41:FE:20:24,1574338901906,0.92540940331108,-0.0833138404731137,0.369697498299693
1038,42,C0:09:55:11:5C:0F,1574338902273,-0.067796244588862,0.0574794247601221,0.996042059829249
1039,42,D2:C0:A5:F4:45:84,1574338902432,0.552093627983901,0.817234733179184,0.165287678987644
1040,42,CF:CF:2F:51:CA:2E,1574338902835,-0.917487513304075,0.0759067553255245,0.390454641958648
1041,42,E0:5B:41:FE:20:24,1574338902927,0.937422612126639,-0.0679151886021487,0.341506037180609
1042,42,C0:09:55:11:5C:0F,1574338903281,-0.0738932987277149,0.0456478530183891,0.99622088610807
1043,42,D2:C0:A5:F4:45:84,1574338903392,0.54504223850805,0.825970991457455,0.143878002185609
1044,43,D2:C0:A5:F4:45:84,1574339009471,0.647801714513393,0.757148035662382,0.0841414925355181
1045,43,D2:C0:A5:F4:45:84,1574339009471,0.647801714513393,0.757148035662382,0.0841414925355181
1046,43,D2:C0:A5:F4:45:84,1574339009471,0.647801714513393,0.757148035662382,0.0841414925355181
1047,43,CF:CF:2F:51:CA:2E,1574339009986,-0.773865672417299,0.110291313153155,0.623672788645677
1048,43,CF:CF:2F:51:CA:2E,1574339009986,-0.773865672417299,0.110291313153155,0.623672788645677
1049,43,CF:CF:2F:51:CA:2E,1574339009986,-0.773865672417299,0.110291313153155,0.623672788645677
1050,43,E0:5B:41:FE:20:24,1574339010024,0.858052526434057,-0.0517683830239629,-0.510946079737594
1051,43,E0:5B:41:FE:20:24,1574339010024,0.858052526434057,-0.0517683830239629,-0.510946079737594
1052,43,E0:5B:41:FE:20:24,1574339010024,0.858052526434057,-0.0517683830239629,-0.510946079737594
1053,43,C0:09:55:11:5C:0F,1574339010136,0.0225260921517571,-0.0332528027002129,0.999193087588656
1054,43,C0:09:55:11:5C:0F,1574339010136,0.0225260921517571,-0.0332528027002129,0.999193087588656
1055,43,C0:09:55:11:5C:0F,1574339010136,0.0225260921517571,-0.0332528027002129,0.999193087588656
1056,43,D2:C0:A5:F4:45:84,1574339010309,0.341154098744135,0.820100629081796,0.459400521429525
1057,43,D2:C0:A5:F4:45:84,1574339010309,0.341154098744135,0.820100629081796,0.459400521429525
1058,43,D2:C0:A5:F4:45:84,1574339010309,0.341154098744135,0.820100629081796,0.459400521429525
1059,43,CF:CF:2F:51:CA:2E,1574339010891,-0.706358620209976,0.0500678307276264,0.706081236106221
1060,43,CF:CF:2F:51:CA:2E,1574339010891,-0.706358620209976,0.0500678307276264,0.706081236106221
1061,43,CF:CF:2F:51:CA:2E,1574339010891,-0.706358620209976,0.0500678307276264,0.706081236106221
1062,43,E0:5B:41:FE:20:24,1574339010925,0.859374190390896,-0.0345750806224539,-0.510176993493379
1063,43,E0:5B:41:FE:20:24,1574339010925,0.859374190390896,-0.0345750806224539,-0.510176993493379
1064,43,E0:5B:41:FE:20:24,1574339010925,0.859374190390896,-0.0345750806224539,-0.510176993493379
1065,43,C0:09:55:11:5C:0F,1574339011158,-0.0215662991220298,-0.0114092679226222,0.999702317366349
1066,43,C0:09:55:11:5C:0F,1574339011158,-0.0215662991220298,-0.0114092679226222,0.999702317366349
1067,43,C0:09:55:11:5C:0F,1574339011158,-0.0215662991220298,-0.0114092679226222,0.999702317366349
1068,43,D2:C0:A5:F4:45:84,1574339011333,0.659439420410307,0.75159438095618,0.0156696306278953
1069,43,D2:C0:A5:F4:45:84,1574339011333,0.659439420410307,0.75159438095618,0.0156696306278953
1070,43,D2:C0:A5:F4:45:84,1574339011333,0.659439420410307,0.75159438095618,0.0156696306278953
1071,43,CF:CF:2F:51:CA:2E,1574339011909,-0.676040915087171,0.0263151107205499,0.736394049457127
1072,43,CF:CF:2F:51:CA:2E,1574339011909,-0.676040915087171,0.0263151107205499,0.736394049457127
1073,43,CF:CF:2F:51:CA:2E,1574339011909,-0.676040915087171,0.0263151107205499,0.736394049457127
1074,43,E0:5B:41:FE:20:24,1574339012006,0.915899173287669,-0.026178476433921,-0.400553856232296
1075,43,E0:5B:41:FE:20:24,1574339012006,0.915899173287669,-0.026178476433921,-0.400553856232296
1076,43,E0:5B:41:FE:20:24,1574339012006,0.915899173287669,-0.026178476433921,-0.400553856232296
1077,43,C0:09:55:11:5C:0F,1574339012118,-0.041347422114748,-0.0569025616241548,0.997523177257087
1078,43,C0:09:55:11:5C:0F,1574339012118,-0.041347422114748,-0.0569025616241548,0.997523177257087
1079,43,C0:09:55:11:5C:0F,1574339012118,-0.041347422114748,-0.0569025616241548,0.997523177257087
1080,43,D2:C0:A5:F4:45:84,1574339012411,0.254468504567502,0.892091609113975,0.373387655301588
1081,43,D2:C0:A5:F4:45:84,1574339012411,0.254468504567502,0.892091609113975,0.373387655301588
1082,43,D2:C0:A5:F4:45:84,1574339012411,0.254468504567502,0.892091609113975,0.373387655301588
1083,43,CF:CF:2F:51:CA:2E,1574339012929,-0.626838846844795,-0.0775282165233405,0.775282165233405
1084,43,CF:CF:2F:51:CA:2E,1574339012929,-0.626838846844795,-0.0775282165233405,0.775282165233405
1085,43,CF:CF:2F:51:CA:2E,1574339012929,-0.626838846844795,-0.0775282165233405,0.775282165233405
1086,43,E0:5B:41:FE:20:24,1574339013025,0.903576196332379,-0.00364897000033268,-0.428411884101558
1087,43,E0:5B:41:FE:20:24,1574339013025,0.903576196332379,-0.00364897000033268,-0.428411884101558
1088,43,E0:5B:41:FE:20:24,1574339013025,0.903576196332379,-0.00364897000033268,-0.428411884101558
1089,43,C0:09:55:11:5C:0F,1574339013139,0.0460011810609658,-0.0290181868902023,0.998519822622767
1090,43,C0:09:55:11:5C:0F,1574339013139,0.0460011810609658,-0.0290181868902023,0.998519822622767
1091,43,C0:09:55:11:5C:0F,1574339013139,0.0460011810609658,-0.0290181868902023,0.998519822622767
1092,43,D2:C0:A5:F4:45:84,1574339013441,0.507392757230443,0.860755570301644,0.0406501919402768
1093,43,D2:C0:A5:F4:45:84,1574339013441,0.507392757230443,0.860755570301644,0.0406501919402768
1094,43,D2:C0:A5:F4:45:84,1574339013441,0.507392757230443,0.860755570301644,0.0406501919402768
1095,43,E0:5B:41:FE:20:24,1574339013936,0.741853689290026,-0.00442897724949269,-0.670547155573194
1096,43,E0:5B:41:FE:20:24,1574339013936,0.741853689290026,-0.00442897724949269,-0.670547155573194
1097,43,E0:5B:41:FE:20:24,1574339013936,0.741853689290026,-0.00442897724949269,-0.670547155573194
1098,43,CF:CF:2F:51:CA:2E,1574339013947,-0.932740638132377,0.0503829518979931,0.357010448214685
1099,43,CF:CF:2F:51:CA:2E,1574339013947,-0.932740638132377,0.0503829518979931,0.357010448214685
1100,43,CF:CF:2F:51:CA:2E,1574339013947,-0.932740638132377,0.0503829518979931,0.357010448214685
1101,43,C0:09:55:11:5C:0F,1574339014169,-0.120762997507022,-0.0071433469507502,0.992655665891985
1102,43,C0:09:55:11:5C:0F,1574339014169,-0.120762997507022,-0.0071433469507502,0.992655665891985
1103,43,C0:09:55:11:5C:0F,1574339014169,-0.120762997507022,-0.0071433469507502,0.992655665891985
1104,43,D2:C0:A5:F4:45:84,1574339014451,0.660603593030637,0.748659713561823,0.0557810556062005
1105,43,D2:C0:A5:F4:45:84,1574339014451,0.660603593030637,0.748659713561823,0.0557810556062005
1106,43,D2:C0:A5:F4:45:84,1574339014451,0.660603593030637,0.748659713561823,0.0557810556062005
1107,43,CF:CF:2F:51:CA:2E,1574339014968,-0.93610809794285,0.0742563398254652,0.343784270962976
1108,43,CF:CF:2F:51:CA:2E,1574339014968,-0.93610809794285,0.0742563398254652,0.343784270962976
1109,43,CF:CF:2F:51:CA:2E,1574339014968,-0.93610809794285,0.0742563398254652,0.343784270962976
1110,43,E0:5B:41:FE:20:24,1574339015006,0.721137205920568,-0.0201900861061145,-0.69249800769396
1111,43,E0:5B:41:FE:20:24,1574339015006,0.721137205920568,-0.0201900861061145,-0.69249800769396
1112,43,E0:5B:41:FE:20:24,1574339015006,0.721137205920568,-0.0201900861061145,-0.69249800769396
1113,43,C0:09:55:11:5C:0F,1574339015239,-0.0600912168553,-0.0336895838204771,0.997624206602292
1114,43,C0:09:55:11:5C:0F,1574339015239,-0.0600912168553,-0.0336895838204771,0.997624206602292
1115,43,C0:09:55:11:5C:0F,1574339015239,-0.0600912168553,-0.0336895838204771,0.997624206602292
1116,43,D2:C0:A5:F4:45:84,1574339015351,0.610325047856303,0.790600748444588,0.0495357700864595
1117,43,D2:C0:A5:F4:45:84,1574339015351,0.610325047856303,0.790600748444588,0.0495357700864595
1118,43,D2:C0:A5:F4:45:84,1574339015351,0.610325047856303,0.790600748444588,0.0495357700864595
1119,43,CF:CF:2F:51:CA:2E,1574339015869,-0.945153196710102,0.0445889763269799,0.323569556569815
1120,43,CF:CF:2F:51:CA:2E,1574339015869,-0.945153196710102,0.0445889763269799,0.323569556569815
1121,43,CF:CF:2F:51:CA:2E,1574339015869,-0.945153196710102,0.0445889763269799,0.323569556569815
1122,43,E0:5B:41:FE:20:24,1574339015907,0.725865852656448,-0.0237916576894981,-0.687424702037768
1123,43,E0:5B:41:FE:20:24,1574339015907,0.725865852656448,-0.0237916576894981,-0.687424702037768
1124,43,E0:5B:41:FE:20:24,1574339015907,0.725865852656448,-0.0237916576894981,-0.687424702037768
1125,43,C0:09:55:11:5C:0F,1574339016198,-0.0523052762846002,0.00548469649020105,0.998616080471971
1126,43,C0:09:55:11:5C:0F,1574339016198,-0.0523052762846002,0.00548469649020105,0.998616080471971
1127,43,C0:09:55:11:5C:0F,1574339016198,-0.0523052762846002,0.00548469649020105,0.998616080471971
1128,43,D2:C0:A5:F4:45:84,1574339016311,0.622425334681204,0.780469855178802,0.0587665542989486
1129,43,D2:C0:A5:F4:45:84,1574339016311,0.622425334681204,0.780469855178802,0.0587665542989486
1130,43,D2:C0:A5:F4:45:84,1574339016311,0.622425334681204,0.780469855178802,0.0587665542989486
1131,43,CF:CF:2F:51:CA:2E,1574339016839,-0.931805282474486,0.066635070447855,0.356789409791061
1132,43,CF:CF:2F:51:CA:2E,1574339016839,-0.931805282474486,0.066635070447855,0.356789409791061
1133,43,CF:CF:2F:51:CA:2E,1574339016839,-0.931805282474486,0.066635070447855,0.356789409791061
1134,43,E0:5B:41:FE:20:24,1574339016926,0.715829997625143,-0.0257747472487495,-0.697798736674301
1135,43,E0:5B:41:FE:20:24,1574339016926,0.715829997625143,-0.0257747472487495,-0.697798736674301
1136,43,E0:5B:41:FE:20:24,1574339016926,0.715829997625143,-0.0257747472487495,-0.697798736674301
1137,43,C0:09:55:11:5C:0F,1574339017159,-0.0329445072803611,0.00361586055516159,0.999450641598923
1138,43,C0:09:55:11:5C:0F,1574339017159,-0.0329445072803611,0.00361586055516159,0.999450641598923
1139,43,C0:09:55:11:5C:0F,1574339017159,-0.0329445072803611,0.00361586055516159,0.999450641598923
1140,43,D2:C0:A5:F4:45:84,1574339017391,0.622729505246582,0.779427402099498,0.0685630232105844
1141,43,D2:C0:A5:F4:45:84,1574339017391,0.622729505246582,0.779427402099498,0.0685630232105844
1142,43,D2:C0:A5:F4:45:84,1574339017391,0.622729505246582,0.779427402099498,0.0685630232105844
1143,43,CF:CF:2F:51:CA:2E,1574339017850,-0.932305891602547,0.0613429478563029,0.3564305924461
1144,43,CF:CF:2F:51:CA:2E,1574339017850,-0.932305891602547,0.0613429478563029,0.3564305924461
1145,43,CF:CF:2F:51:CA:2E,1574339017850,-0.932305891602547,0.0613429478563029,0.3564305924461
1146,43,E0:5B:41:FE:20:24,1574339017886,0.71661635500278,-0.0244439287630212,-0.697039090789862
1147,43,E0:5B:41:FE:20:24,1574339017886,0.71661635500278,-0.0244439287630212,-0.697039090789862
1148,43,E0:5B:41:FE:20:24,1574339017886,0.71661635500278,-0.0244439287630212,-0.697039090789862
1149,43,C0:09:55:11:5C:0F,1574339018129,-0.0301547253514261,0.00576290306716144,0.999528629648605
1150,43,C0:09:55:11:5C:0F,1574339018129,-0.0301547253514261,0.00576290306716144,0.999528629648605
1151,43,C0:09:55:11:5C:0F,1574339018129,-0.0301547253514261,0.00576290306716144,0.999528629648605
1152,43,D2:C0:A5:F4:45:84,1574339018366,0.639038348765048,0.766895431883514,0.0591725051340533
1153,43,D2:C0:A5:F4:45:84,1574339018366,0.639038348765048,0.766895431883514,0.0591725051340533
1154,43,D2:C0:A5:F4:45:84,1574339018366,0.639038348765048,0.766895431883514,0.0591725051340533
1155,43,CF:CF:2F:51:CA:2E,1574339018879,-0.930216817100654,0.0684377635201001,0.360573079565704
1156,43,CF:CF:2F:51:CA:2E,1574339018879,-0.930216817100654,0.0684377635201001,0.360573079565704
1157,43,CF:CF:2F:51:CA:2E,1574339018879,-0.930216817100654,0.0684377635201001,0.360573079565704
1158,43,E0:5B:41:FE:20:24,1574339018907,0.716152699110631,-0.0261103100556325,-0.69745506182503
1159,43,E0:5B:41:FE:20:24,1574339018907,0.716152699110631,-0.0261103100556325,-0.69745506182503
1160,43,E0:5B:41:FE:20:24,1574339018907,0.716152699110631,-0.0261103100556325,-0.69745506182503
1161,43,C0:09:55:11:5C:0F,1574339019148,-0.0335651116791665,0.00187964625403333,0.999434765358863
1162,43,C0:09:55:11:5C:0F,1574339019148,-0.0335651116791665,0.00187964625403333,0.999434765358863
1163,43,C0:09:55:11:5C:0F,1574339019148,-0.0335651116791665,0.00187964625403333,0.999434765358863
1164,44,D2:C0:A5:F4:45:84,1574339036412,0.355139436937405,0.877549027175358,0.322154753550782
1165,44,D2:C0:A5:F4:45:84,1574339036412,0.355139436937405,0.877549027175358,0.322154753550782
1166,44,D2:C0:A5:F4:45:84,1574339036412,0.355139436937405,0.877549027175358,0.322154753550782
1167,44,CF:CF:2F:51:CA:2E,1574339036939,-0.722472843526194,-0.127334472421788,0.679572602817566
1168,44,CF:CF:2F:51:CA:2E,1574339036939,-0.722472843526194,-0.127334472421788,0.679572602817566
1169,44,CF:CF:2F:51:CA:2E,1574339036939,-0.722472843526194,-0.127334472421788,0.679572602817566
1170,44,E0:5B:41:FE:20:24,1574339037028,0.994154276302574,-0.0222041278566864,0.105661022214577
1171,44,E0:5B:41:FE:20:24,1574339037028,0.994154276302574,-0.0222041278566864,0.105661022214577
1172,44,E0:5B:41:FE:20:24,1574339037028,0.994154276302574,-0.0222041278566864,0.105661022214577
1173,44,C0:09:55:11:5C:0F,1574339037142,-0.000271169392986513,-0.030642141407476,0.999530382548287
1174,44,C0:09:55:11:5C:0F,1574339037142,-0.000271169392986513,-0.030642141407476,0.999530382548287
1175,44,C0:09:55:11:5C:0F,1574339037142,-0.000271169392986513,-0.030642141407476,0.999530382548287
1176,44,D2:C0:A5:F4:45:84,1574339037312,0.438392409578028,0.856027851606363,0.273913147728555
1177,44,D2:C0:A5:F4:45:84,1574339037312,0.438392409578028,0.856027851606363,0.273913147728555
1178,44,D2:C0:A5:F4:45:84,1574339037312,0.438392409578028,0.856027851606363,0.273913147728555
1179,44,CF:CF:2F:51:CA:2E,1574339037902,-0.875229233155599,-0.0250261933125403,0.483060533554693
1180,44,CF:CF:2F:51:CA:2E,1574339037902,-0.875229233155599,-0.0250261933125403,0.483060533554693
1181,44,CF:CF:2F:51:CA:2E,1574339037902,-0.875229233155599,-0.0250261933125403,0.483060533554693
1182,44,E0:5B:41:FE:20:24,1574339037926,0.942106772257631,-0.0660583662613248,0.32874172523912
1183,44,E0:5B:41:FE:20:24,1574339037926,0.942106772257631,-0.0660583662613248,0.32874172523912
1184,44,E0:5B:41:FE:20:24,1574339037926,0.942106772257631,-0.0660583662613248,0.32874172523912
1185,44,C0:09:55:11:5C:0F,1574339038175,0.00202655143907082,-0.0456649590937291,0.998954756032641
1186,44,C0:09:55:11:5C:0F,1574339038175,0.00202655143907082,-0.0456649590937291,0.998954756032641
1187,44,C0:09:55:11:5C:0F,1574339038175,0.00202655143907082,-0.0456649590937291,0.998954756032641
1188,44,D2:C0:A5:F4:45:84,1574339038334,0.530777606495522,0.819910718597065,0.214526329322369
1189,44,D2:C0:A5:F4:45:84,1574339038334,0.530777606495522,0.819910718597065,0.214526329322369
1190,44,D2:C0:A5:F4:45:84,1574339038334,0.530777606495522,0.819910718597065,0.214526329322369
1191,44,CF:CF:2F:51:CA:2E,1574339038860,-0.892183097450897,0.0831176848028306,0.443960326038196
1192,44,CF:CF:2F:51:CA:2E,1574339038860,-0.892183097450897,0.0831176848028306,0.443960326038196
1193,44,CF:CF:2F:51:CA:2E,1574339038860,-0.892183097450897,0.0831176848028306,0.443960326038196
1194,44,E0:5B:41:FE:20:24,1574339038888,0.93581713631279,-0.0689162913988359,0.345683138384214
1195,44,E0:5B:41:FE:20:24,1574339038888,0.93581713631279,-0.0689162913988359,0.345683138384214
1196,44,E0:5B:41:FE:20:24,1574339038888,0.93581713631279,-0.0689162913988359,0.345683138384214
1197,44,C0:09:55:11:5C:0F,1574339039189,0.0151711161255669,-0.0874017398030449,0.996057615359124
1198,44,C0:09:55:11:5C:0F,1574339039189,0.0151711161255669,-0.0874017398030449,0.996057615359124
1199,44,C0:09:55:11:5C:0F,1574339039189,0.0151711161255669,-0.0874017398030449,0.996057615359124
1200,44,D2:C0:A5:F4:45:84,1574339039352,0.711901121639946,0.693659887913714,0.10969390551585
1201,44,D2:C0:A5:F4:45:84,1574339039352,0.711901121639946,0.693659887913714,0.10969390551585
1202,44,D2:C0:A5:F4:45:84,1574339039352,0.711901121639946,0.693659887913714,0.10969390551585
1203,44,CF:CF:2F:51:CA:2E,1574339039885,-0.864230759243322,0.117678480289123,0.489139008927476
1204,44,CF:CF:2F:51:CA:2E,1574339039885,-0.864230759243322,0.117678480289123,0.489139008927476
1205,44,CF:CF:2F:51:CA:2E,1574339039885,-0.864230759243322,0.117678480289123,0.489139008927476
1206,44,E0:5B:41:FE:20:24,1574339039905,0.942069522135595,-0.0808664149044689,0.32552363724269
1207,44,E0:5B:41:FE:20:24,1574339039905,0.942069522135595,-0.0808664149044689,0.32552363724269
1208,44,E0:5B:41:FE:20:24,1574339039905,0.942069522135595,-0.0808664149044689,0.32552363724269
1209,44,C0:09:55:11:5C:0F,1574339040275,-0.0186585889713753,-0.0513787232545116,0.998504924301495
1210,44,C0:09:55:11:5C:0F,1574339040275,-0.0186585889713753,-0.0513787232545116,0.998504924301495
1211,44,C0:09:55:11:5C:0F,1574339040275,-0.0186585889713753,-0.0513787232545116,0.998504924301495
1212,44,D2:C0:A5:F4:45:84,1574339040431,0.645101222717321,0.74266166777591,0.179716609318454
1213,44,D2:C0:A5:F4:45:84,1574339040431,0.645101222717321,0.74266166777591,0.179716609318454
1214,44,D2:C0:A5:F4:45:84,1574339040431,0.645101222717321,0.74266166777591,0.179716609318454
1215,44,CF:CF:2F:51:CA:2E,1574339040841,-0.825836866247578,0.130431770919599,0.548617374388706
1216,44,CF:CF:2F:51:CA:2E,1574339040841,-0.825836866247578,0.130431770919599,0.548617374388706
1217,44,CF:CF:2F:51:CA:2E,1574339040841,-0.825836866247578,0.130431770919599,0.548617374388706
1218,44,E0:5B:41:FE:20:24,1574339040990,0.9538639880803,-0.0759024145200239,0.290486343420091
1219,44,E0:5B:41:FE:20:24,1574339040990,0.9538639880803,-0.0759024145200239,0.290486343420091
1220,44,E0:5B:41:FE:20:24,1574339040990,0.9538639880803,-0.0759024145200239,0.290486343420091
1221,44,C0:09:55:11:5C:0F,1574339041159,-0.00500758574447528,-0.0523160931725444,0.99861802030615
1222,44,C0:09:55:11:5C:0F,1574339041159,-0.00500758574447528,-0.0523160931725444,0.99861802030615
1223,44,C0:09:55:11:5C:0F,1574339041159,-0.00500758574447528,-0.0523160931725444,0.99861802030615
1224,44,D2:C0:A5:F4:45:84,1574339041331,0.674861004035163,0.714701426600721,0.183751179717427
1225,44,D2:C0:A5:F4:45:84,1574339041331,0.674861004035163,0.714701426600721,0.183751179717427
1226,44,D2:C0:A5:F4:45:84,1574339041331,0.674861004035163,0.714701426600721,0.183751179717427
1227,44,CF:CF:2F:51:CA:2E,1574339041864,-0.772322656291383,0.0488656738823769,0.63334813530557
1228,44,CF:CF:2F:51:CA:2E,1574339041864,-0.772322656291383,0.0488656738823769,0.63334813530557
1229,44,CF:CF:2F:51:CA:2E,1574339041864,-0.772322656291383,0.0488656738823769,0.63334813530557
1230,44,E0:5B:41:FE:20:24,1574339041886,0.951129105209758,-0.0774370598931838,0.298926290208781
1231,44,E0:5B:41:FE:20:24,1574339041886,0.951129105209758,-0.0774370598931838,0.298926290208781
1232,44,E0:5B:41:FE:20:24,1574339041886,0.951129105209758,-0.0774370598931838,0.298926290208781
1233,44,C0:09:55:11:5C:0F,1574339042130,-0.00600684246037695,-0.047120341966957,0.998871158466683
1234,44,C0:09:55:11:5C:0F,1574339042130,-0.00600684246037695,-0.047120341966957,0.998871158466683
1235,44,C0:09:55:11:5C:0F,1574339042130,-0.00600684246037695,-0.047120341966957,0.998871158466683
1236,44,D2:C0:A5:F4:45:84,1574339042361,0.631018577306656,0.748944551592421,0.202231584412305
1237,44,D2:C0:A5:F4:45:84,1574339042361,0.631018577306656,0.748944551592421,0.202231584412305
1238,44,D2:C0:A5:F4:45:84,1574339042361,0.631018577306656,0.748944551592421,0.202231584412305
1239,44,CF:CF:2F:51:CA:2E,1574339042871,-0.737389619129817,0.0597846500110816,0.672816724838671
1240,44,CF:CF:2F:51:CA:2E,1574339042871,-0.737389619129817,0.0597846500110816,0.672816724838671
1241,44,CF:CF:2F:51:CA:2E,1574339042871,-0.737389619129817,0.0597846500110816,0.672816724838671
1242,44,E0:5B:41:FE:20:24,1574339042907,0.957842096361334,-0.081051905194249,0.275624939188216
1243,44,E0:5B:41:FE:20:24,1574339042907,0.957842096361334,-0.081051905194249,0.275624939188216
1244,44,E0:5B:41:FE:20:24,1574339042907,0.957842096361334,-0.081051905194249,0.275624939188216
1245,44,C0:09:55:11:5C:0F,1574339043139,0.00587343504079722,-0.043917275645961,0.9990179055756
1246,44,C0:09:55:11:5C:0F,1574339043139,0.00587343504079722,-0.043917275645961,0.9990179055756
1247,44,C0:09:55:11:5C:0F,1574339043139,0.00587343504079722,-0.043917275645961,0.9990179055756
1248,44,D2:C0:A5:F4:45:84,1574339043312,0.612640058532219,0.7567906605398,0.227903608574703
1249,44,D2:C0:A5:F4:45:84,1574339043312,0.612640058532219,0.7567906605398,0.227903608574703
1250,44,D2:C0:A5:F4:45:84,1574339043312,0.612640058532219,0.7567906605398,0.227903608574703
1251,44,CF:CF:2F:51:CA:2E,1574339043846,-0.739911386021165,0.0895869083111636,0.666712326791312
1252,44,CF:CF:2F:51:CA:2E,1574339043846,-0.739911386021165,0.0895869083111636,0.666712326791312
1253,44,CF:CF:2F:51:CA:2E,1574339043846,-0.739911386021165,0.0895869083111636,0.666712326791312
1254,44,E0:5B:41:FE:20:24,1574339043927,0.956347535258359,-0.0779335641492914,0.281648276018602
1255,44,E0:5B:41:FE:20:24,1574339043927,0.956347535258359,-0.0779335641492914,0.281648276018602
1256,44,E0:5B:41:FE:20:24,1574339043927,0.956347535258359,-0.0779335641492914,0.281648276018602
1257,44,C0:09:55:11:5C:0F,1574339044222,0.00365173822851538,-0.0585630612202651,0.998277032024889
1258,44,C0:09:55:11:5C:0F,1574339044222,0.00365173822851538,-0.0585630612202651,0.998277032024889
1259,44,C0:09:55:11:5C:0F,1574339044222,0.00365173822851538,-0.0585630612202651,0.998277032024889
1260,44,D2:C0:A5:F4:45:84,1574339044332,0.622969639037888,0.75354058664764,0.209965266441223
1261,44,D2:C0:A5:F4:45:84,1574339044332,0.622969639037888,0.75354058664764,0.209965266441223
1262,44,D2:C0:A5:F4:45:84,1574339044332,0.622969639037888,0.75354058664764,0.209965266441223
1263,44,CF:CF:2F:51:CA:2E,1574339044908,-0.713924942556016,0.126938426741511,0.688620223499702
1264,44,CF:CF:2F:51:CA:2E,1574339044908,-0.713924942556016,0.126938426741511,0.688620223499702
1265,44,CF:CF:2F:51:CA:2E,1574339044908,-0.713924942556016,0.126938426741511,0.688620223499702
